PacketCounter	SampleTimeFine	Acc_X	Acc_Y	Acc_Z	Gyr_X	Gyr_Y	Gyr_Z	Mag_X	Mag_Y	Mag_Z
07895		0.781578	-0.353557	9.899892	0.009155	-0.006676	0.001526	-0.354736	0.151855	-0.612793
07896		0.776140	-0.346918	9.930303	0.001907	-0.006294	-0.007629	-0.354980	0.158447	-0.616211
07897		0.781431	-0.341264	9.930424	0.010681	-0.003624	-0.000763	-0.352295	0.153809	-0.621826
07898		0.769985	-0.328314	9.918074	0.004387	-0.013161	-0.002289	-0.357178	0.154053	-0.618652
07899		0.787684	-0.335469	9.936505	0.004578	-0.006676	0.000763	-0.352539	0.158447	-0.613525
07900		0.800274	-0.347465	9.905909	0.001144	-0.000954	0.000572	-0.352295	0.153809	-0.618896
07901		0.787807	-0.341400	9.942605	0.007629	-0.008965	-0.004578	-0.357178	0.154053	-0.615967
07902		0.782067	-0.358735	9.930350	0.012016	0.000954	-0.003242	-0.352295	0.151611	-0.618652
07903		0.775035	-0.366234	9.991463	-0.000572	0.002289	-0.001526	-0.350098	0.156006	-0.619141
07904		0.786951	-0.353687	9.912133	0.008011	0.002480	-0.003815	-0.352295	0.153809	-0.624512
07905		0.756493	-0.347959	9.936547	-0.001526	0.007057	-0.004578	-0.352539	0.156250	-0.610352
07906		0.786904	-0.360535	9.954801	-0.004768	-0.006294	-0.000191	-0.354736	0.154053	-0.618896
07907		0.787842	-0.347967	9.967000	-0.001526	-0.009727	-0.002289	-0.352539	0.154053	-0.610352
07908		0.788733	-0.329802	9.948601	-0.000381	-0.008583	0.000572	-0.354980	0.156250	-0.616211
07909		0.787676	-0.323432	9.912086	0.001526	-0.006676	0.005341	-0.354980	0.156250	-0.613281
07910		0.757873	-0.353877	9.918083	0.000572	-0.009346	-0.000954	-0.347656	0.153809	-0.616211
07911		0.762553	-0.359988	9.960971	0.002289	0.007820	-0.001526	-0.349854	0.153809	-0.615967
07912		0.798684	-0.341760	9.954830	-0.002670	0.000191	0.005150	-0.352295	0.153809	-0.618896
07913		0.781670	-0.359853	9.948707	0.004578	-0.008202	-0.006866	-0.352539	0.158447	-0.619141
07914		0.769586	-0.365245	9.924256	0.009537	0.004578	-0.004005	-0.357422	0.158447	-0.616211
07915		0.787460	-0.334853	9.942647	0.016785	-0.002098	-0.001526	-0.354492	0.149414	-0.624268
07916		0.799730	-0.315980	9.918208	-0.003815	0.000191	0.007439	-0.354980	0.158447	-0.619141
07917		0.781043	-0.335825	9.960949	-0.002289	0.004005	0.004578	-0.352295	0.156006	-0.619141
07918		0.786473	-0.342194	9.985380	-0.002480	0.008202	-0.003242	-0.352295	0.156006	-0.619141
07919		0.780452	-0.354211	9.960993	-0.004578	0.016212	-0.005341	-0.359863	0.158691	-0.616211
07920		0.779923	-0.341800	9.936612	0.009537	-0.005913	0.000000	-0.352783	0.162842	-0.613770
07921		0.769272	-0.365961	9.912101	0.004578	-0.004387	-0.006104	-0.352295	0.153809	-0.621826
07922		0.763623	-0.359199	9.960835	0.008774	-0.006104	0.001335	-0.352295	0.156006	-0.619141
07923		0.769178	-0.366381	10.003646	-0.003052	-0.002861	0.004578	-0.354980	0.158447	-0.616211
07924		0.793496	-0.348474	9.942537	-0.003433	0.002861	0.005341	-0.347656	0.156006	-0.616211
07925		0.750814	-0.366076	9.967040	0.002480	-0.001526	-0.003052	-0.354980	0.154053	-0.610107
07926		0.769380	-0.341546	9.924300	0.000954	-0.004768	-0.003242	-0.354980	0.158447	-0.619141
07927		0.787013	-0.304845	9.960975	0.006104	0.007057	-0.006866	-0.352539	0.154053	-0.613037
07928		0.792702	-0.341690	9.893790	-0.009727	0.001907	-0.004005	-0.354980	0.158447	-0.613525
07929		0.781219	-0.347562	9.918227	0.006104	0.000954	-0.009155	-0.352295	0.151611	-0.613037
07930		0.768369	-0.377581	9.942682	0.004959	0.011826	-0.004768	-0.352539	0.158447	-0.613525
07931		0.793749	-0.347752	9.918195	0.003052	-0.005913	0.000763	-0.350098	0.158203	-0.619385
07932		0.770235	-0.359954	9.991307	-0.002670	-0.012398	-0.000191	-0.352539	0.160645	-0.619385
07933		0.805245	-0.347583	9.912155	0.006104	0.008583	-0.003815	-0.347900	0.153809	-0.601807
07934		0.780284	-0.377681	9.924331	0.002289	0.002670	-0.013161	-0.354736	0.156250	-0.618896
07935		0.799697	-0.323159	9.985351	0.006866	-0.002861	0.003815	-0.350098	0.158203	-0.619385
07936		0.793754	-0.310489	9.936434	0.002861	0.000381	-0.019073	-0.347656	0.158203	-0.619385
07937		0.769228	-0.317636	9.936501	-0.005341	-0.003624	-0.003052	-0.352783	0.158447	-0.610596
07938		0.805975	-0.336189	9.991360	0.001717	-0.000572	0.002289	-0.352539	0.154053	-0.613037
07939		0.769223	-0.354345	9.930394	-0.006866	-0.003624	0.000000	-0.352539	0.158447	-0.613525
07940		0.782074	-0.378942	9.966913	0.004959	-0.010872	0.002098	-0.354736	0.154053	-0.615967
07941		0.756812	-0.359869	9.912120	0.003815	0.000954	-0.012970	-0.352539	0.156250	-0.610352
07942		0.781345	-0.359430	9.948726	0.005531	-0.003624	-0.005341	-0.354980	0.156250	-0.613281
07943		0.799769	-0.323852	9.936495	-0.006866	-0.004387	0.006104	-0.354980	0.158447	-0.616211
07944		0.800337	-0.348855	9.918079	-0.004196	-0.007820	-0.004005	-0.354980	0.158447	-0.619141
07945		0.775182	-0.329322	9.906012	0.005531	-0.000763	0.001526	-0.354980	0.156250	-0.607422
07946		0.757121	-0.353213	9.954823	0.005913	-0.005531	-0.005341	-0.349854	0.156006	-0.622070
07947		0.756642	-0.335345	9.893826	0.006866	0.004005	-0.002289	-0.349854	0.151611	-0.618652
07948		0.780879	-0.335269	9.930411	-0.004959	-0.000191	-0.000763	-0.349854	0.156006	-0.622070
07949		0.787877	-0.384822	9.954781	-0.006104	-0.010490	-0.000763	-0.352783	0.158447	-0.607666
07950		0.770611	-0.361048	9.966800	-0.005722	-0.010300	-0.003242	-0.354736	0.156250	-0.618896
07951		0.757254	-0.378056	9.954816	0.006866	-0.008202	-0.005341	-0.355225	0.156250	-0.604736
07952		0.776109	-0.328753	9.997453	0.003433	-0.004005	0.000572	-0.352539	0.158447	-0.616455
07953		0.787362	-0.305221	9.936521	-0.001335	0.000000	-0.005341	-0.355225	0.160645	-0.613525
07954		0.793334	-0.317209	9.851000	0.007439	0.002480	0.000572	-0.354980	0.156250	-0.613281
07955		0.781615	-0.323463	9.967013	0.000763	-0.007439	0.003815	-0.350342	0.158447	-0.610596
07956		0.763991	-0.316958	9.936412	0.008774	-0.007820	0.002861	-0.349854	0.156006	-0.622070
07957		0.769114	-0.354006	9.967035	0.000191	-0.001526	0.003052	-0.350342	0.160645	-0.613770
07958		0.787263	-0.323318	9.973072	0.005531	0.003624	0.003052	-0.354980	0.154053	-0.613037
07959		0.775023	-0.365908	9.924337	0.006104	0.002480	0.000000	-0.354736	0.156250	-0.621826
07960		0.762554	-0.377930	10.015874	-0.001907	0.002098	-0.003052	-0.354980	0.154053	-0.613037
07961		0.775708	-0.323787	9.960884	-0.006104	-0.011253	-0.000763	-0.347656	0.158203	-0.619385
07962		0.794194	-0.317733	9.954678	0.006294	0.006294	-0.000954	-0.357422	0.156494	-0.607422
07963		0.805507	-0.322834	9.912143	0.012970	0.003242	-0.002289	-0.354980	0.156250	-0.607422
07964		0.780890	-0.315791	9.918222	0.006485	-0.000191	-0.007820	-0.352539	0.156250	-0.616211
07965		0.750956	-0.329350	9.979239	0.004578	-0.004387	-0.003052	-0.355225	0.160645	-0.613525
07966		0.781578	-0.353266	9.954752	0.005531	0.000954	0.003624	-0.357422	0.156250	-0.613281
07967		0.775255	-0.354375	9.960916	-0.007629	-0.002098	-0.002289	-0.352539	0.156250	-0.610352
07968		0.775509	-0.366819	9.979145	0.002670	-0.003242	-0.005531	-0.350098	0.158203	-0.616455
07969		0.787363	-0.323215	9.899910	0.004578	0.000191	-0.011444	-0.352783	0.158447	-0.610596
07970		0.787546	-0.322624	9.936521	0.007629	-0.003815	-0.001717	-0.352295	0.151611	-0.618652
07971		0.769090	-0.323380	9.942627	0.001717	-0.000763	-0.005341	-0.350098	0.158203	-0.616455
07972		0.787557	-0.329123	9.973042	0.005341	-0.004005	-0.002480	-0.354736	0.156250	-0.621826
07973		0.781599	-0.347827	9.979223	0.000763	-0.006676	-0.009155	-0.350098	0.158203	-0.616455
07974		0.787993	-0.366048	9.942536	0.001335	0.000572	-0.000191	-0.352783	0.160645	-0.613770
07975		0.793187	-0.335602	9.979273	0.001526	0.005531	-0.003815	-0.355225	0.158691	-0.602051
07976		0.798727	-0.341012	9.942672	0.014114	0.005150	0.003052	-0.352295	0.153809	-0.615967
07977		0.787075	-0.365955	9.936555	0.005341	0.005531	0.002289	-0.352783	0.158447	-0.607666
07978		0.786983	-0.353530	9.912093	-0.000191	-0.004005	-0.001717	-0.354980	0.158447	-0.613525
07979		0.775409	-0.341592	9.948717	0.003815	-0.005150	-0.003815	-0.352783	0.158447	-0.610596
07980		0.782267	-0.359915	9.936379	-0.003815	-0.010872	-0.000191	-0.352539	0.156250	-0.613281
07981		0.775473	-0.354092	9.948702	-0.001526	-0.006676	0.003052	-0.357422	0.158447	-0.616211
07982		0.812157	-0.353944	9.930348	0.005150	0.003624	0.001335	-0.354980	0.156250	-0.613281
07983		0.799244	-0.341733	9.906034	0.001526	0.006294	0.003052	-0.354980	0.156250	-0.616211
07984		0.780662	-0.366146	9.912102	-0.000381	-0.001717	0.002861	-0.352783	0.162842	-0.616699
07985		0.806191	-0.341403	9.918184	0.007629	-0.010490	-0.003815	-0.347656	0.158203	-0.619385
07986		0.782238	-0.347210	9.948637	-0.001717	0.001335	-0.003242	-0.350098	0.156006	-0.613281
07987		0.793502	-0.317203	9.942629	0.003242	-0.000763	-0.004578	-0.352539	0.158447	-0.616455
07988		0.757278	-0.347506	9.960908	0.001526	-0.008583	-0.008583	-0.354980	0.156250	-0.616211
07989		0.775067	-0.329006	9.942652	0.011444	0.001717	-0.003815	-0.350098	0.158203	-0.619385
07990		0.768825	-0.334631	9.967040	-0.001717	0.000572	-0.000954	-0.345215	0.156006	-0.616455
07991		0.781808	-0.335553	10.003623	0.003052	-0.011253	0.003052	-0.352295	0.156006	-0.619141
07992		0.800619	-0.335369	9.954742	0.002670	-0.000191	-0.000191	-0.357422	0.156250	-0.613281
07993		0.744582	-0.365493	9.899932	0.014496	0.000954	0.000000	-0.352539	0.156250	-0.607666
07994		0.793584	-0.346459	9.979231	-0.000381	-0.004196	-0.007629	-0.357178	0.154053	-0.615967
07995		0.762840	-0.341517	9.948748	0.004578	0.002480	-0.013733	-0.347900	0.156006	-0.607666
07996		0.793340	-0.323068	9.991440	-0.001526	-0.003242	-0.004578	-0.357178	0.154053	-0.618652
07997		0.781277	-0.336038	9.942613	-0.006866	-0.000572	0.000763	-0.352539	0.158447	-0.619141
07998		0.769431	-0.336352	9.905884	0.002098	-0.007820	-0.000191	-0.350098	0.158203	-0.616455
07999		0.793256	-0.341458	9.973172	0.006866	0.004005	0.000763	-0.354736	0.156250	-0.621826
08000		0.793220	-0.346980	9.954824	0.004959	-0.004768	-0.001526	-0.355225	0.158447	-0.607666
08001		0.799367	-0.335270	9.863311	0.008392	0.004005	-0.002289	-0.350098	0.153809	-0.610352
08002		0.793023	-0.334302	9.912135	0.012016	0.001335	-0.008392	-0.354980	0.158447	-0.616211
08003		0.793867	-0.329430	9.899875	0.003052	-0.008202	-0.002289	-0.354980	0.158447	-0.616211
08004		0.751702	-0.360721	9.899759	-0.018120	-0.004196	0.000763	-0.350098	0.158203	-0.619385
08005		0.787392	-0.353564	9.979261	0.008392	-0.000572	-0.005341	-0.352539	0.156250	-0.613281
08006		0.787523	-0.309993	9.912109	0.008202	-0.003242	-0.005531	-0.352295	0.151611	-0.618652
08007		0.787541	-0.329232	9.973142	0.006866	-0.003624	-0.003815	-0.350098	0.156006	-0.613281
08008		0.762757	-0.328985	9.991401	-0.001144	0.011253	0.001335	-0.352539	0.158447	-0.619141
08009		0.781838	-0.347848	9.960893	0.001526	-0.012016	0.006104	-0.354980	0.154053	-0.613037
08010		0.764106	-0.365985	9.979156	0.002098	-0.000191	-0.006866	-0.347656	0.156006	-0.616211
08011		0.744558	-0.384390	9.912120	0.002480	0.001526	-0.002289	-0.354980	0.156250	-0.616211
08012		0.786980	-0.347137	9.979282	0.010681	0.004005	-0.010109	-0.354736	0.156250	-0.621826
08013		0.781138	-0.317431	9.887703	-0.001526	0.002480	-0.006866	-0.354980	0.154053	-0.607422
08014		0.793586	-0.330059	9.960895	-0.005913	-0.008202	-0.004005	-0.352539	0.160645	-0.619385
08015		0.806031	-0.329555	9.905977	0.000763	-0.007439	0.000763	-0.348145	0.160645	-0.605225
08016		0.794145	-0.342195	9.966930	-0.007629	-0.000572	0.004578	-0.352539	0.156250	-0.613281
08017		0.781172	-0.323886	9.948724	-0.008392	0.001717	-0.004578	-0.352783	0.158447	-0.610596
08018		0.781108	-0.342661	9.930321	-0.000191	-0.000954	-0.000954	-0.352295	0.153809	-0.621826
08019		0.781096	-0.377836	9.918247	0.011444	0.003242	-0.003815	-0.354980	0.158447	-0.616211
08020		0.780805	-0.353061	9.924314	-0.004196	0.001335	-0.001717	-0.350098	0.158203	-0.619385
08021		0.787842	-0.329726	9.912066	-0.003052	-0.009727	-0.003815	-0.349854	0.153809	-0.621826
08022		0.782403	-0.323501	9.838765	0.004959	-0.003815	-0.007057	-0.352295	0.153809	-0.615967
08023		0.787581	-0.329452	9.905992	0.002289	-0.004387	-0.006104	-0.352539	0.151855	-0.607178
08024		0.793680	-0.347039	9.942568	0.013351	0.003242	-0.001717	-0.352783	0.160645	-0.613770
08025		0.781053	-0.329598	9.948746	0.000191	0.003815	0.004578	-0.354736	0.154053	-0.615967
08026		0.774710	-0.335904	9.936516	-0.002861	-0.000572	-0.006866	-0.355225	0.162842	-0.616699
08027		0.787509	-0.359900	9.918208	0.004005	-0.003052	-0.002289	-0.353027	0.160889	-0.599365
08028		0.800057	-0.365771	9.936413	0.001526	-0.004387	0.004387	-0.352539	0.158447	-0.613525
08029		0.775416	-0.353986	9.930400	0.000191	-0.005341	-0.002289	-0.352295	0.153809	-0.618896
08030		0.782041	-0.335406	9.875378	0.006104	-0.006485	0.003624	-0.354980	0.158447	-0.613525
08031		0.793448	-0.329136	9.918229	0.009155	0.000191	0.000000	-0.356934	0.154053	-0.624512
08032		0.793436	-0.328819	9.905997	-0.001717	-0.001526	0.000572	-0.352783	0.162842	-0.616699
08033		0.769649	-0.335398	9.851037	0.005341	-0.012016	-0.008392	-0.357178	0.154053	-0.618652
08034		0.794869	-0.359541	9.905889	0.000191	-0.005531	0.003815	-0.352539	0.158447	-0.613525
08035		0.793531	-0.347706	9.869386	0.004005	-0.001526	0.000763	-0.350098	0.158203	-0.622070
08036		0.763243	-0.359630	9.930411	0.003433	-0.004005	-0.005341	-0.354980	0.158447	-0.619141
08037		0.769392	-0.378119	9.985336	0.005341	-0.006676	-0.008392	-0.352539	0.156250	-0.607666
08038		0.764015	-0.359220	9.899787	0.006294	-0.008202	-0.000954	-0.352539	0.158447	-0.616455
08039		0.769165	-0.329598	9.863272	-0.000572	-0.002289	-0.005341	-0.357178	0.154053	-0.615967
08040		0.781383	-0.311599	9.930322	-0.004959	0.001335	-0.005531	-0.352539	0.156250	-0.616211
08041		0.756490	-0.329354	9.912144	0.004578	0.007057	-0.002289	-0.354980	0.158447	-0.619141
08042		0.792790	-0.310663	9.912109	0.005150	-0.002098	0.005150	-0.352539	0.158447	-0.616455
08043		0.787118	-0.329814	9.942638	-0.004578	0.004768	-0.000763	-0.350342	0.156250	-0.601807
08044		0.780682	-0.372593	9.918227	0.003433	0.002098	-0.007057	-0.357422	0.160889	-0.616455
08045		0.763404	-0.378190	9.954807	0.003815	-0.008965	-0.009918	-0.357178	0.156250	-0.621826
08046		0.794441	-0.341342	9.918110	0.001335	-0.002480	-0.001717	-0.354736	0.156250	-0.618896
08047		0.768621	-0.366085	9.960975	0.002289	0.008583	-0.003052	-0.352539	0.154053	-0.613037
08048		0.774956	-0.341237	9.918173	0.007629	-0.013542	0.002289	-0.357422	0.156250	-0.613281
08049		0.787207	-0.335772	9.979257	-0.002289	0.003242	-0.009155	-0.357666	0.158691	-0.607666
08050		0.780987	-0.335977	9.954829	-0.002480	-0.000191	-0.007820	-0.352539	0.156250	-0.616211
08051		0.769077	-0.341481	9.973153	0.006104	-0.000572	-0.003052	-0.352539	0.158447	-0.613525
08052		0.769473	-0.347435	9.918176	-0.001526	-0.008965	0.008202	-0.350098	0.158203	-0.619385
08053		0.768738	-0.347807	9.930447	0.001526	0.006294	-0.004578	-0.352539	0.154053	-0.604492
08054		0.774411	-0.365748	9.948749	0.007439	0.001335	0.000572	-0.354980	0.158447	-0.613525
08055		0.750921	-0.366078	9.863272	0.002289	-0.003624	-0.005341	-0.347656	0.153809	-0.607422
08056		0.769476	-0.353481	9.948643	0.006485	-0.000954	-0.002480	-0.352295	0.156006	-0.624756
08057		0.775231	-0.341642	9.899901	0.002289	-0.001335	-0.010681	-0.352539	0.156250	-0.610352
08058		0.793097	-0.323277	9.899841	-0.000954	0.008965	0.007439	-0.352539	0.158447	-0.616455
08059		0.774963	-0.322997	9.918243	0.009155	0.004005	-0.009155	-0.352539	0.154053	-0.607422
08060		0.805067	-0.322431	9.936544	0.001907	0.004387	-0.001717	-0.352539	0.156250	-0.616211
08061		0.762783	-0.347433	9.948759	0.009155	0.003242	-0.003052	-0.354980	0.151855	-0.607178
08062		0.781055	-0.359376	9.936504	-0.002861	-0.003624	-0.003815	-0.352051	0.151611	-0.624512
08063		0.793868	-0.347778	9.918184	0.002289	-0.008202	-0.002289	-0.352295	0.156006	-0.621826
08064		0.775956	-0.348395	9.942504	-0.013733	-0.000954	0.000763	-0.354980	0.162842	-0.619629
08065		0.768973	-0.335593	9.948739	0.001717	0.001526	-0.003815	-0.359863	0.158691	-0.610352
08066		0.762593	-0.341645	9.893813	0.000954	0.003242	-0.002480	-0.352539	0.158447	-0.613525
08067		0.769355	-0.322873	9.893795	0.011444	-0.005913	-0.012207	-0.352539	0.156250	-0.610352
08068		0.787938	-0.297751	9.893708	0.003433	-0.000191	-0.001717	-0.350098	0.156006	-0.613281
08069		0.774880	-0.335725	9.930440	-0.000572	0.005341	0.000763	-0.350098	0.158447	-0.613525
08070		0.768166	-0.348387	9.893809	-0.008202	0.006294	-0.003815	-0.354980	0.158447	-0.613525
08071		0.762606	-0.335818	9.899924	-0.001526	0.006294	0.012970	-0.352783	0.162842	-0.611084
08072		0.786482	-0.347846	9.924345	0.006676	0.004196	-0.002289	-0.352539	0.151611	-0.610107
08073		0.781284	-0.347472	9.924329	0.008392	-0.000572	-0.003052	-0.352783	0.158447	-0.607666
08074		0.781031	-0.359299	9.918228	-0.000954	0.004387	0.000572	-0.347656	0.156006	-0.613525
08075		0.787614	-0.323323	9.924301	0.003052	-0.005150	-0.003052	-0.350342	0.156250	-0.604736
08076		0.775717	-0.347501	9.899804	0.001907	-0.001717	-0.004768	-0.357178	0.154053	-0.613037
08077		0.775329	-0.329963	9.948704	-0.007629	-0.003624	-0.001526	-0.352539	0.156250	-0.616211
08078		0.787915	-0.336541	9.942507	-0.001717	-0.005531	-0.000191	-0.350098	0.156006	-0.616211
08079		0.793466	-0.371935	9.912123	0.006866	0.000191	-0.009918	-0.350098	0.160645	-0.619385
08080		0.774904	-0.341159	9.893817	-0.001144	0.005150	-0.007057	-0.357422	0.156250	-0.610352
08081		0.775654	-0.334993	9.936507	0.012970	-0.009727	-0.014496	-0.352783	0.158447	-0.607666
08082		0.788402	-0.352581	9.954734	0.001335	-0.001717	-0.005531	-0.354980	0.158447	-0.616211
08083		0.799304	-0.329506	9.942650	0.000763	0.005531	-0.011444	-0.355225	0.160645	-0.610840
08084		0.774865	-0.329545	9.924292	-0.001335	-0.005722	-0.004005	-0.352539	0.158447	-0.616455
08085		0.769044	-0.323663	9.912104	-0.003624	0.000000	-0.000763	-0.352539	0.158447	-0.622070
08086		0.775205	-0.341808	9.912022	0.007820	-0.001335	0.004387	-0.350342	0.160645	-0.616699
08087		0.793944	-0.311003	9.912079	0.005341	-0.009727	-0.003052	-0.350098	0.153809	-0.613281
08088		0.770239	-0.377381	9.905913	0.011063	-0.004768	-0.003242	-0.350098	0.158447	-0.613525
08089		0.769267	-0.378566	9.924293	-0.002861	-0.004578	0.001526	-0.352539	0.154053	-0.610352
08090		0.787724	-0.335817	9.936438	0.004387	0.000572	-0.010109	-0.352295	0.151611	-0.615723
08091		0.756506	-0.353426	9.954880	0.010681	0.007057	-0.012207	-0.357422	0.158691	-0.610596
08092		0.762049	-0.346862	9.942640	-0.001907	0.004387	0.002861	-0.352539	0.160645	-0.616455
08093		0.787875	-0.365795	9.973119	0.008392	-0.010490	0.000763	-0.355225	0.158691	-0.604736
08094		0.794530	-0.310282	9.930322	0.003433	-0.001907	-0.016022	-0.352539	0.158447	-0.616455
08095		0.780748	-0.316920	9.985406	0.009155	0.010109	-0.001526	-0.354980	0.158447	-0.613525
08096		0.780026	-0.335109	9.912209	-0.005722	0.003624	-0.002480	-0.345215	0.156006	-0.616455
08097		0.762902	-0.347665	9.893810	0.004768	0.000763	0.000000	-0.354980	0.158447	-0.616211
08098		0.763289	-0.347434	9.930389	0.001717	-0.008965	0.000000	-0.352539	0.156250	-0.616211
08099		0.812198	-0.341098	9.918202	0.012970	-0.008202	-0.013733	-0.352295	0.153809	-0.615967
08100		0.794218	-0.315857	9.985270	0.003433	0.002098	-0.004768	-0.350098	0.158203	-0.616455
08101		0.750693	-0.342121	9.930412	-0.006866	0.000954	-0.004578	-0.347900	0.156006	-0.607666
08102		0.775032	-0.336235	9.948641	0.002098	0.000572	-0.005531	-0.354736	0.156250	-0.618896
08103		0.780932	-0.329146	9.948770	0.009155	0.006294	0.003052	-0.352539	0.156250	-0.616211
08104		0.750232	-0.346536	9.912114	0.009918	-0.003242	-0.003815	-0.352295	0.151611	-0.618652
08105		0.756692	-0.341342	9.948757	0.008392	0.003242	-0.009918	-0.350098	0.153809	-0.613281
08106		0.768759	-0.358779	9.954851	0.008965	0.000191	-0.006294	-0.350342	0.160645	-0.616699
08107		0.774885	-0.366219	9.960958	-0.000763	0.005531	-0.007629	-0.354980	0.156250	-0.613281
08108		0.786915	-0.354358	9.905986	-0.005722	-0.002480	-0.006294	-0.350098	0.156006	-0.616211
08109		0.800012	-0.347809	9.918180	0.001526	-0.008965	-0.003815	-0.354736	0.154053	-0.615967
08110		0.775724	-0.353550	9.924256	0.006676	0.005913	-0.007057	-0.352539	0.156250	-0.616211
08111		0.787605	-0.335930	9.930392	-0.004578	-0.005150	0.002289	-0.354980	0.154053	-0.610107
08112		0.769679	-0.336176	9.960833	0.001907	-0.003242	0.001335	-0.352783	0.162842	-0.619629
08113		0.750811	-0.360348	9.985337	-0.005341	-0.001335	-0.006866	-0.354980	0.158447	-0.622070
08114		0.757132	-0.336351	9.985238	-0.001717	-0.004005	-0.000191	-0.352539	0.158447	-0.616455
08115		0.762799	-0.348052	9.967046	-0.002289	0.002480	0.009918	-0.350342	0.160645	-0.616699
08116		0.787007	-0.366561	9.936529	0.000381	0.001335	-0.003242	-0.354980	0.156250	-0.610352
08117		0.775167	-0.341359	9.960951	0.009155	-0.000572	0.004578	-0.352539	0.156250	-0.610352
08118		0.787170	-0.334945	9.985362	-0.002098	0.003624	0.001335	-0.354980	0.158447	-0.619141
08119		0.769120	-0.341936	9.936513	-0.002861	-0.001526	-0.000763	-0.347412	0.151611	-0.613037
08120		0.787618	-0.354575	9.924201	-0.004196	-0.003242	-0.004768	-0.354980	0.156250	-0.613281
08121		0.775572	-0.329203	9.893778	0.006866	-0.008202	-0.012207	-0.354980	0.156250	-0.613281
08122		0.757145	-0.365213	9.912065	0.004387	0.011253	-0.004768	-0.352539	0.158447	-0.616455
08123		0.780969	-0.347915	9.918234	0.000000	0.005531	0.003815	-0.350098	0.156006	-0.619141
08124		0.793217	-0.323714	9.948700	-0.002670	-0.006676	-0.000191	-0.352295	0.153809	-0.618896
08125		0.769188	-0.354263	9.930399	-0.005341	-0.002861	-0.001526	-0.357422	0.151855	-0.607178
08126		0.788035	-0.348463	9.905879	-0.000191	-0.007820	-0.004768	-0.352539	0.156250	-0.616211
08127		0.769115	-0.360031	9.967038	0.001717	-0.001526	0.002289	-0.352539	0.156250	-0.613281
08128		0.750951	-0.359368	9.936442	0.012970	-0.002480	0.000000	-0.350098	0.156006	-0.616211
08129		0.793783	-0.390183	9.979239	0.009155	-0.006676	0.003815	-0.354980	0.156250	-0.607422
08130		0.775664	-0.353021	9.924230	0.002861	0.000954	0.004387	-0.354980	0.156250	-0.613281
08131		0.762713	-0.341736	9.930439	0.000763	0.004768	-0.006104	-0.359863	0.160889	-0.613525
08132		0.805859	-0.347317	9.954797	0.009918	-0.013542	0.001526	-0.347656	0.153809	-0.607422
08133		0.799463	-0.341977	9.991457	-0.003052	0.001717	0.006866	-0.357422	0.158691	-0.613281
08134		0.787192	-0.329628	9.973154	0.005913	-0.000191	-0.012207	-0.352783	0.158447	-0.610596
08135		0.775180	-0.335226	9.948744	0.009155	-0.000572	-0.003052	-0.354736	0.156250	-0.618896
08136		0.787739	-0.328684	9.960909	0.001144	-0.007820	0.002289	-0.352783	0.160645	-0.610840
08137		0.775279	-0.341931	9.918198	-0.002289	-0.002861	0.005341	-0.354736	0.156250	-0.618896
08138		0.787324	-0.342381	9.966953	-0.005913	0.004387	0.000763	-0.354980	0.156250	-0.616211
08139		0.744813	-0.360223	9.948712	-0.002098	-0.003815	0.003052	-0.352539	0.158447	-0.616455
08140		0.788131	-0.354367	9.930283	-0.001907	-0.009727	-0.004578	-0.352295	0.156006	-0.621826
08141		0.781332	-0.323462	9.893793	0.000191	-0.001526	-0.003815	-0.352539	0.156250	-0.610352
08142		0.781664	-0.329492	9.954717	0.001717	-0.006294	-0.003242	-0.349854	0.153809	-0.618896
08143		0.787374	-0.304780	9.936534	0.008392	-0.000572	0.005341	-0.347656	0.156006	-0.619141
08144		0.793778	-0.322835	9.924287	-0.002670	-0.006294	-0.005341	-0.350098	0.158203	-0.622070
08145		0.787651	-0.329202	9.942616	0.007629	-0.005913	-0.002289	-0.354980	0.158447	-0.616211
08146		0.806283	-0.365536	9.942525	-0.001717	-0.000954	0.000572	-0.347656	0.160400	-0.619629
08147		0.750840	-0.353855	9.899899	0.003242	-0.002289	0.003052	-0.354980	0.154053	-0.607422
08148		0.805744	-0.347612	9.899819	0.002289	0.002098	0.003815	-0.357422	0.160889	-0.616455
08149		0.812232	-0.342213	9.973092	-0.009155	-0.008965	-0.009918	-0.350342	0.156250	-0.607666
08150		0.787885	-0.336587	9.942461	-0.000954	0.006676	-0.003052	-0.357666	0.160889	-0.610596
08151		0.769237	-0.335661	9.942613	0.000000	-0.003624	-0.008392	-0.350098	0.153809	-0.604492
08152		0.787347	-0.322784	9.960896	0.013542	0.008011	-0.007057	-0.354980	0.156250	-0.616211
08153		0.751028	-0.335461	9.905991	0.004578	-0.005913	-0.001526	-0.354980	0.158447	-0.610596
08154		0.793977	-0.353510	9.960850	0.002480	0.000954	0.002861	-0.349854	0.153809	-0.615967
08155		0.763096	-0.347920	9.997546	-0.000572	-0.003052	-0.002289	-0.347412	0.151367	-0.621582
08156		0.781337	-0.360453	9.948642	-0.004196	0.003624	0.010681	-0.357178	0.156250	-0.618896
08157		0.787183	-0.366458	9.985356	-0.004578	0.003242	0.004578	-0.352783	0.162842	-0.616699
08158		0.762141	-0.360495	9.966984	0.003242	0.008583	-0.006104	-0.357178	0.156250	-0.618896
08159		0.781854	-0.335713	9.918165	-0.000763	-0.012016	-0.004578	-0.349609	0.151611	-0.627441
08160		0.788873	-0.323474	9.930203	0.001907	-0.007439	-0.003242	-0.357422	0.160889	-0.613525
08161		0.781518	-0.317254	9.942610	0.002480	-0.005341	-0.001526	-0.352539	0.158447	-0.622070
08162		0.763398	-0.335961	9.912000	-0.009727	0.000572	-0.006104	-0.350098	0.153809	-0.613281
08163		0.787498	-0.341805	9.979236	0.000191	-0.003052	0.004578	-0.354736	0.151855	-0.610107
08164		0.781180	-0.372348	9.887630	0.000763	0.007439	-0.006104	-0.354980	0.156250	-0.616211
08165		0.781555	-0.402508	9.936513	0.006104	-0.005913	-0.005341	-0.352295	0.156006	-0.619141
08166		0.769798	-0.371469	9.905906	0.004959	-0.003433	-0.007057	-0.352295	0.153809	-0.618896
08167		0.775191	-0.384648	9.875480	-0.002861	-0.000763	-0.003815	-0.354980	0.156250	-0.613281
08168		0.762805	-0.353886	9.905935	0.007439	0.003052	-0.009346	-0.354736	0.151611	-0.618652
08169		0.757071	-0.354193	9.905981	-0.004578	-0.004387	-0.009918	-0.352295	0.153809	-0.615967
08170		0.799963	-0.299359	9.942540	0.001335	0.001717	-0.007057	-0.352295	0.153809	-0.615967
08171		0.768883	-0.323141	9.967065	0.006866	0.003242	-0.000763	-0.357422	0.156250	-0.610352
08172		0.792907	-0.341090	9.948745	0.001144	0.003242	0.004387	-0.352539	0.156250	-0.616211
08173		0.787278	-0.354435	9.875479	-0.009155	0.001717	-0.005341	-0.352539	0.154053	-0.613037
08174		0.781131	-0.361247	9.924209	-0.004005	-0.001335	-0.003242	-0.345215	0.156006	-0.619141
08175		0.794033	-0.359917	9.924277	0.003052	-0.011253	-0.009918	-0.350098	0.153809	-0.610352
08176		0.782147	-0.353663	9.881515	-0.001144	0.005150	-0.004005	-0.352295	0.153809	-0.615967
08177		0.781019	-0.341444	9.918243	0.006866	0.004768	-0.003052	-0.352783	0.160645	-0.604980
08178		0.793272	-0.328653	9.948716	0.005531	-0.005913	0.001526	-0.354980	0.156250	-0.616211
08179		0.787426	-0.335916	9.893785	-0.004387	-0.001526	0.001526	-0.352295	0.156006	-0.621826
08180		0.751531	-0.330574	9.985186	-0.010109	-0.014114	0.000763	-0.352539	0.156250	-0.610352
08181		0.787561	-0.366007	9.954825	0.004578	-0.004387	0.006104	-0.354980	0.158447	-0.613525
08182		0.805710	-0.372122	9.948655	-0.003624	0.006676	0.002098	-0.352295	0.151611	-0.613037
08183		0.805818	-0.329726	9.918196	-0.002861	-0.003052	-0.001526	-0.352783	0.158447	-0.610596
08184		0.788293	-0.341985	9.911965	0.001907	-0.013161	-0.000954	-0.354980	0.158447	-0.613525
08185		0.811452	-0.342070	9.887712	-0.005341	0.006294	0.002289	-0.354980	0.156250	-0.610352
08186		0.792606	-0.336211	9.863298	0.001335	0.003624	0.002861	-0.347656	0.153809	-0.613281
08187		0.775153	-0.341659	9.948735	0.002480	0.000000	-0.003815	-0.350342	0.158447	-0.610596
08188		0.793515	-0.323461	9.979238	-0.003815	-0.000954	-0.006294	-0.352295	0.156006	-0.624756
08189		0.799807	-0.329462	9.967025	0.003052	-0.005150	0.006104	-0.357422	0.156250	-0.613281
08190		0.787884	-0.322909	9.973057	0.007439	-0.000954	-0.004005	-0.350098	0.156006	-0.616211
08191		0.768852	-0.360101	9.948745	0.000191	0.003815	0.000763	-0.350098	0.156006	-0.616211
08192		0.774916	-0.348013	9.936511	-0.000763	-0.002861	-0.005341	-0.352295	0.153809	-0.615967
08193		0.757021	-0.359995	9.973135	0.002480	-0.003815	0.003052	-0.350098	0.156006	-0.616211
08194		0.769572	-0.335763	9.930297	-0.005531	-0.004768	-0.003815	-0.352295	0.153809	-0.621826
08195		0.799673	-0.304815	9.899904	0.006866	-0.002098	-0.005341	-0.350342	0.158447	-0.610596
08196		0.769433	-0.340844	9.930319	0.005722	-0.004005	-0.000191	-0.355225	0.162842	-0.616699
08197		0.781050	-0.335393	9.936549	0.006104	0.004005	0.000763	-0.354736	0.156250	-0.618896
08198		0.786596	-0.353804	9.930429	-0.007629	0.005722	-0.001717	-0.357422	0.158691	-0.613281
08199		0.775512	-0.335437	9.924297	0.005341	-0.007439	0.002289	-0.354736	0.154053	-0.618896
08200		0.794149	-0.359893	9.918106	-0.005531	-0.000381	-0.003052	-0.357178	0.154053	-0.618652
08201		0.800043	-0.341608	9.924284	0.003815	-0.009727	0.000000	-0.352539	0.160645	-0.625244
08202		0.776242	-0.359567	9.960840	0.005150	-0.002861	0.000572	-0.352539	0.160645	-0.619385
08203		0.780984	-0.353560	10.015906	0.008392	0.005531	-0.006104	-0.357178	0.151855	-0.615723
08204		0.756090	-0.352883	9.985374	0.004959	0.003624	-0.004005	-0.352295	0.153809	-0.615967
08205		0.756688	-0.335865	9.954839	-0.003624	0.003052	-0.002289	-0.352539	0.158447	-0.619141
08206		0.768883	-0.348721	9.948698	-0.008965	-0.004387	-0.001717	-0.354980	0.158447	-0.622070
08207		0.768816	-0.366304	9.942641	-0.002289	0.004768	-0.005341	-0.350098	0.156006	-0.619141
08208		0.786800	-0.354219	9.906014	0.001907	0.001335	0.005913	-0.352295	0.151611	-0.613037
08209		0.775359	-0.378278	9.948719	0.003052	-0.004387	0.003052	-0.352295	0.153809	-0.621826
08210		0.757377	-0.353598	9.930320	0.004387	-0.003242	0.000572	-0.347656	0.153809	-0.613281
08211		0.787515	-0.317751	9.924292	-0.008392	-0.002861	-0.012207	-0.354736	0.156250	-0.618896
08212		0.769359	-0.348299	9.942542	0.007248	-0.000572	-0.000954	-0.356934	0.149658	-0.621338
08213		0.775068	-0.323483	9.906012	0.000191	0.001526	0.001526	-0.352539	0.158447	-0.616455
08214		0.768700	-0.335727	9.954848	0.001717	0.002861	0.006104	-0.354980	0.154053	-0.613037
08215		0.769560	-0.347722	9.954800	0.003815	-0.010490	0.003052	-0.352539	0.156250	-0.607666
08216		0.782295	-0.347618	9.924214	-0.000381	-0.001717	-0.003815	-0.354736	0.156250	-0.618896
08217		0.768565	-0.360248	9.954866	-0.002289	0.009346	0.006866	-0.350098	0.156006	-0.616211
08218		0.756110	-0.354284	9.973128	0.000572	-0.004768	0.005913	-0.354736	0.156250	-0.621826
08219		0.769293	-0.341545	9.967030	0.005341	-0.005150	0.003815	-0.347656	0.151611	-0.610107
08220		0.787997	-0.335071	9.936420	0.002670	-0.003242	-0.003242	-0.352295	0.153809	-0.621826
08221		0.756812	-0.341715	9.948735	0.002289	0.000191	0.008392	-0.352295	0.156006	-0.621826
08222		0.769196	-0.347403	9.954829	0.008011	-0.004959	-0.000954	-0.352539	0.160645	-0.616455
08223		0.787390	-0.329849	9.930408	-0.005150	-0.000763	0.000763	-0.352539	0.158447	-0.616455
08224		0.750887	-0.354569	9.948624	-0.000381	-0.002861	-0.006866	-0.349854	0.153809	-0.621826
08225		0.756648	-0.341282	9.918245	0.009918	0.004005	-0.006104	-0.350098	0.158203	-0.616455
08226		0.787038	-0.334561	9.985352	0.003624	-0.001335	0.000572	-0.350098	0.158447	-0.613525
08227		0.799717	-0.353706	9.997557	0.005341	-0.002861	-0.007629	-0.352295	0.156006	-0.619141
08228		0.787379	-0.353235	9.905938	0.004196	0.005150	0.002861	-0.352295	0.153809	-0.615967
08229		0.756785	-0.342222	9.936513	-0.008392	0.000954	0.002289	-0.354980	0.156250	-0.613281
08230		0.793375	-0.342523	9.948639	0.002480	-0.000191	-0.002289	-0.350098	0.156006	-0.619141
08231		0.799703	-0.353662	9.960938	0.006866	-0.002861	0.000000	-0.349854	0.156006	-0.627686
08232		0.744643	-0.352784	9.973184	0.010490	0.005722	-0.007820	-0.354736	0.154053	-0.621582
08233		0.781023	-0.353994	9.936542	0.000191	0.004578	0.000000	-0.350098	0.160400	-0.622314
08234		0.793133	-0.329611	9.924307	0.000954	-0.002861	-0.006866	-0.352295	0.151611	-0.618652
08235		0.775597	-0.348005	9.954795	-0.002289	-0.008965	-0.002289	-0.354980	0.160645	-0.616455
08236		0.763851	-0.354335	9.942526	-0.001144	-0.000954	-0.003242	-0.354736	0.154053	-0.615967
08237		0.793068	-0.371712	9.918267	0.012207	0.007820	0.000763	-0.347412	0.153809	-0.618896
08238		0.756541	-0.352777	9.960898	0.001144	-0.011063	-0.006866	-0.350342	0.160645	-0.613770
08239		0.793457	-0.323007	9.942643	0.009155	0.000191	-0.006104	-0.352539	0.158447	-0.613525
08240		0.781405	-0.334831	9.942612	-0.002861	-0.002670	-0.013161	-0.345459	0.162598	-0.619873
08241		0.769270	-0.360513	10.015837	-0.008392	-0.004387	-0.003815	-0.350098	0.156006	-0.619141
08242		0.800059	-0.348550	9.960840	0.003624	-0.002098	-0.007057	-0.352539	0.160645	-0.616455
08243		0.787042	-0.323100	9.960975	0.007629	0.006294	-0.001526	-0.359619	0.158691	-0.621826
08244		0.786623	-0.334791	9.899912	0.002670	0.001335	-0.001717	-0.354980	0.156250	-0.616211
08245		0.799529	-0.341458	9.906020	0.006104	0.000954	-0.009155	-0.354980	0.154053	-0.607422
08246		0.793227	-0.322847	9.960947	-0.000954	0.002861	-0.004768	-0.347412	0.156006	-0.622070
08247		0.781020	-0.317099	9.942654	0.005341	0.004768	-0.004578	-0.354980	0.158447	-0.616211
08248		0.799202	-0.329466	9.960916	-0.006866	-0.002480	0.002861	-0.354980	0.158447	-0.616211
08249		0.787393	-0.347850	9.954833	0.000954	-0.000763	-0.000763	-0.357666	0.158691	-0.599121
08250		0.769101	-0.372437	10.015860	-0.002098	-0.001335	0.004578	-0.350098	0.153809	-0.613281
08251		0.769125	-0.371521	9.973168	0.015259	-0.001335	-0.008392	-0.357422	0.151855	-0.601318
08252		0.763463	-0.346675	9.936480	-0.006104	-0.008583	-0.000763	-0.352295	0.153809	-0.615967
08253		0.787206	-0.329682	9.973153	-0.002098	0.003052	-0.003052	-0.354980	0.156250	-0.607422
08254		0.750550	-0.323909	9.930400	-0.003624	-0.003624	-0.011635	-0.354736	0.154053	-0.615967
08255		0.763127	-0.342011	9.979226	-0.004578	-0.003624	-0.003815	-0.355225	0.156250	-0.604736
08256		0.788063	-0.347986	9.887588	0.008011	-0.006676	0.001335	-0.352295	0.151611	-0.615723
08257		0.774984	-0.341382	9.948757	0.008392	0.003242	0.000763	-0.352539	0.156250	-0.616211
08258		0.762425	-0.359277	9.967054	0.000954	0.002861	-0.005341	-0.357422	0.154053	-0.610107
08259		0.763623	-0.353715	9.930378	0.005341	-0.013542	-0.006104	-0.357422	0.154053	-0.607178
08260		0.788630	-0.329359	9.918015	-0.007248	0.001335	-0.004578	-0.352539	0.158447	-0.613525
08261		0.769126	-0.353942	9.985347	0.000954	-0.001526	-0.003815	-0.354980	0.158447	-0.619141
08262		0.781131	-0.335446	9.948657	0.002861	0.004387	-0.002480	-0.352539	0.158447	-0.616455
08263		0.763222	-0.335644	9.948710	0.001526	-0.005913	0.006866	-0.352295	0.156006	-0.619141
08264		0.793990	-0.311486	9.942528	-0.004578	0.000954	-0.005341	-0.352539	0.156250	-0.613281
08265		0.811847	-0.341513	9.930423	0.005531	-0.001526	-0.002289	-0.352539	0.156250	-0.613281
08266		0.805236	-0.348169	9.960954	-0.014496	0.010300	0.005913	-0.354736	0.154053	-0.615967
08267		0.787676	-0.366197	9.985327	0.000763	-0.006676	0.006104	-0.352783	0.158447	-0.607666
08268		0.775961	-0.341539	10.003557	0.004959	-0.004768	-0.002480	-0.347656	0.158203	-0.616455
08269		0.781100	-0.372074	9.942648	0.004768	0.003052	-0.000763	-0.352295	0.153809	-0.618896
08270		0.786893	-0.347270	9.912124	0.004768	0.001717	-0.003242	-0.354736	0.156250	-0.621826
08271		0.744858	-0.341933	9.912087	-0.002861	-0.004578	-0.001526	-0.352295	0.156006	-0.621826
08272		0.788007	-0.305232	9.973038	0.005722	-0.005150	-0.010109	-0.350098	0.156006	-0.616211
08273		0.781520	-0.329495	9.973126	0.001717	-0.005341	-0.002289	-0.352295	0.156006	-0.621826
08274		0.775866	-0.341336	9.905904	0.007057	-0.004768	-0.004005	-0.354736	0.156250	-0.621826
08275		0.787005	-0.341750	9.985381	0.000763	0.007057	-0.002289	-0.357666	0.160889	-0.607910
08276		0.786424	-0.359566	9.930453	0.010300	0.003624	-0.007629	-0.352539	0.158447	-0.613525
08277		0.793499	-0.360165	9.997553	-0.001335	-0.000763	-0.002289	-0.352295	0.156006	-0.621826
08278		0.781342	-0.354340	9.948623	-0.003242	-0.001717	-0.004005	-0.352783	0.160645	-0.613770
08279		0.762750	-0.360011	9.948748	0.001526	0.004005	-0.005341	-0.350098	0.151611	-0.610107
08280		0.762911	-0.341926	9.967006	-0.004578	-0.007057	-0.000954	-0.352295	0.156006	-0.619141
08281		0.781176	-0.323120	9.887713	0.006866	0.001717	-0.006866	-0.350342	0.158447	-0.607910
08282		0.780903	-0.310268	9.930443	0.006676	0.003242	-0.003242	-0.352539	0.156250	-0.616211
08283		0.781173	-0.323313	9.967053	0.003052	0.001717	-0.005341	-0.354980	0.158447	-0.610596
08284		0.775172	-0.323557	10.009737	-0.007439	-0.004196	-0.004005	-0.354980	0.158447	-0.619141
08285		0.775040	-0.323497	9.930428	-0.000572	0.002289	-0.004578	-0.352295	0.158203	-0.625000
08286		0.774882	-0.360435	9.912099	-0.004387	-0.000572	0.003815	-0.352539	0.156250	-0.613281
08287		0.775144	-0.341099	9.942651	0.013733	0.000191	-0.003815	-0.352539	0.156250	-0.616211
08288		0.769151	-0.321727	9.887701	0.008392	-0.002098	-0.002480	-0.349854	0.153809	-0.615967
08289		0.763000	-0.329186	9.967050	0.008392	-0.001335	0.003815	-0.352783	0.158447	-0.604980
08290		0.787308	-0.286165	9.967050	-0.001335	0.002861	-0.000954	-0.350098	0.158203	-0.616455
08291		0.763274	-0.323674	9.973113	-0.003815	-0.006676	-0.000763	-0.350342	0.160645	-0.613770
08292		0.775697	-0.311655	9.948644	0.000763	0.002098	0.008202	-0.350098	0.153809	-0.613281
08293		0.768927	-0.335425	9.918231	0.005531	0.002289	0.001526	-0.350098	0.158203	-0.616455
08294		0.768959	-0.329019	9.893786	0.001717	-0.004005	-0.002289	-0.359619	0.154053	-0.615723
08295		0.769413	-0.360177	9.887664	-0.001526	-0.007439	-0.001526	-0.349854	0.156006	-0.624756
08296		0.763997	-0.360579	9.936388	-0.005722	-0.007820	-0.000954	-0.352539	0.158447	-0.619141
08297		0.793390	-0.347946	9.948734	-0.001335	0.001526	-0.005341	-0.352783	0.156250	-0.601807
08298		0.793302	-0.323213	9.948743	0.008965	-0.000572	-0.004578	-0.354980	0.158447	-0.619141
08299		0.775002	-0.311176	9.954848	0.001717	0.003052	-0.004578	-0.350098	0.158203	-0.616455
08300		0.787149	-0.311117	9.960926	0.001526	-0.003624	0.002289	-0.352539	0.160645	-0.619385
08301		0.769119	-0.299139	9.973137	-0.001335	-0.001526	0.000000	-0.359863	0.154297	-0.610107
08302		0.811596	-0.317715	9.899824	-0.003242	0.005531	-0.004578	-0.352295	0.156006	-0.619141
08303		0.768517	-0.347830	9.942670	0.000763	0.010872	-0.008392	-0.350098	0.156006	-0.619141
08304		0.779756	-0.341413	9.954879	0.005722	0.008965	-0.000954	-0.354736	0.154053	-0.618896
08305		0.768734	-0.359985	9.948759	0.002289	0.006294	-0.002289	-0.350098	0.156006	-0.616211
08306		0.768563	-0.359217	9.948741	0.013351	-0.003433	-0.009155	-0.350098	0.156006	-0.616211
08307		0.793485	-0.318215	9.918184	-0.016785	-0.000572	0.000000	-0.352539	0.156250	-0.613281
08308		0.793654	-0.270485	9.930303	-0.004196	-0.004005	0.001335	-0.347900	0.158203	-0.610840
08309		0.775410	-0.311226	9.991436	0.000763	-0.005150	-0.003815	-0.354980	0.156250	-0.613281
08310		0.806089	-0.317225	9.850985	0.000572	0.001335	-0.008583	-0.352539	0.158447	-0.613525
08311		0.756909	-0.348085	9.893787	-0.003624	-0.001526	0.001526	-0.355225	0.158447	-0.607666
08312		0.768959	-0.341740	9.942564	0.010681	0.003624	-0.000763	-0.352539	0.158447	-0.616455
08313		0.756604	-0.335496	9.887720	0.003815	0.004768	-0.002289	-0.350098	0.158447	-0.613525
08314		0.787076	-0.359811	9.936505	-0.001717	-0.004005	0.000000	-0.352783	0.160645	-0.613770
08315		0.763053	-0.353643	9.930424	0.006866	-0.002098	-0.005341	-0.352539	0.158447	-0.616455
08316		0.775566	-0.340259	9.948647	0.016594	-0.004196	-0.011635	-0.352539	0.156250	-0.613281
08317		0.769235	-0.329461	9.936513	0.002480	-0.003815	-0.001526	-0.352539	0.158447	-0.619141
08318		0.763170	-0.304768	9.936439	0.004768	0.000954	0.005150	-0.349854	0.153809	-0.615967
08319		0.793829	-0.322950	9.930408	0.010681	-0.007439	-0.001526	-0.354980	0.156250	-0.616211
08320		0.794562	-0.321762	9.924208	0.013542	-0.008774	-0.000954	-0.352295	0.156006	-0.619141
08321		0.787225	-0.329229	9.863304	0.007629	0.002480	0.003815	-0.354980	0.158447	-0.613525
08322		0.769260	-0.365978	9.942572	-0.009155	-0.009918	-0.005341	-0.350342	0.162842	-0.614014
08323		0.769340	-0.353694	9.960926	0.006104	-0.005913	-0.001526	-0.352295	0.153809	-0.624512
08324		0.763528	-0.328786	9.918124	0.004768	-0.000381	0.001335	-0.354980	0.156250	-0.616211
08325		0.738458	-0.323343	9.942637	0.002480	0.001526	-0.005341	-0.352295	0.156006	-0.619141
08326		0.762562	-0.316963	9.960959	0.004005	0.004005	-0.007820	-0.350098	0.156006	-0.610596
08327		0.756530	-0.341745	9.918238	0.000763	0.006294	-0.003815	-0.357422	0.156250	-0.610352
08328		0.787133	-0.317374	9.936485	-0.001335	-0.009155	0.005150	-0.354980	0.160645	-0.616455
08329		0.775535	-0.335804	9.960904	-0.003052	-0.007439	-0.010681	-0.352539	0.158447	-0.622070
08330		0.763860	-0.372561	9.979142	0.000954	-0.003242	0.002098	-0.359863	0.156494	-0.613037
08331		0.775382	-0.354193	9.954809	-0.004578	-0.004387	-0.009918	-0.354736	0.154053	-0.615967
08332		0.775378	-0.354308	9.912036	0.001144	0.005150	-0.005341	-0.354980	0.156250	-0.610352
08333		0.763170	-0.335247	9.942624	0.008392	-0.004387	-0.007629	-0.352539	0.158447	-0.613525
08334		0.776020	-0.340724	9.905879	0.003433	-0.009537	-0.011444	-0.352539	0.156250	-0.613281
08335		0.756498	-0.304992	9.948762	0.003052	0.007057	-0.008392	-0.347900	0.160400	-0.616699
08336		0.786566	-0.317472	9.899900	-0.008202	0.002670	-0.007820	-0.352295	0.153809	-0.615967
08337		0.800157	-0.304757	9.912074	0.008392	-0.012016	-0.000763	-0.354736	0.156250	-0.618896
08338		0.757886	-0.340833	9.924235	0.003624	0.002098	-0.005531	-0.352539	0.160645	-0.616455
08339		0.774644	-0.366552	9.936550	-0.006866	0.010109	0.000000	-0.354980	0.158447	-0.622070
08340		0.785960	-0.330473	9.912133	-0.002670	0.007057	-0.003052	-0.349854	0.156006	-0.622070
08341		0.781445	-0.335809	9.930401	-0.003052	-0.003624	-0.009155	-0.354980	0.151855	-0.607178
08342		0.768847	-0.335671	9.936483	0.005722	0.011826	-0.006294	-0.357422	0.158447	-0.616211
08343		0.775497	-0.323255	9.973125	0.003815	-0.006676	-0.010681	-0.354736	0.154053	-0.615967
08344		0.775704	-0.304998	9.918120	-0.003815	0.002098	0.003624	-0.350098	0.158447	-0.613525
08345		0.768850	-0.317216	9.942647	0.003052	0.004005	-0.003815	-0.354736	0.156250	-0.618896
08346		0.799661	-0.334809	9.936505	0.012589	-0.009918	0.006676	-0.354980	0.156250	-0.610352
08347		0.768971	-0.353948	9.906013	0.000954	0.001526	-0.002289	-0.354980	0.158447	-0.613525
08348		0.768422	-0.359998	9.967078	0.002289	0.008583	0.001335	-0.352295	0.151611	-0.618652
08349		0.775105	-0.341644	9.967050	0.003242	0.000763	0.002289	-0.347412	0.153809	-0.618896
08350		0.775155	-0.335534	9.985339	-0.002480	-0.002098	0.000763	-0.352539	0.156250	-0.616211
08351		0.750808	-0.347970	10.015861	-0.001335	-0.001526	0.000763	-0.350098	0.153809	-0.607422
08352		0.787694	-0.323374	9.936419	0.005722	-0.004768	-0.004768	-0.354736	0.156250	-0.618896
08353		0.781134	-0.298751	9.948749	0.006104	0.002480	-0.004578	-0.352783	0.158447	-0.607666
08354		0.768499	-0.316480	9.960968	0.006676	0.005150	0.000572	-0.355225	0.160645	-0.613525
08355		0.768985	-0.329689	9.960939	-0.001526	0.000954	0.006104	-0.354980	0.158447	-0.619141
08356		0.805180	-0.347784	9.960880	0.008011	0.005913	-0.000763	-0.357422	0.158691	-0.613281
08357		0.769014	-0.347756	9.960945	0.002480	0.000763	-0.005341	-0.354980	0.154053	-0.607422
08358		0.750663	-0.347668	9.924316	0.000954	-0.000572	0.001526	-0.355225	0.165283	-0.619629
08359		0.787617	-0.353913	9.979230	0.001526	-0.005150	-0.003815	-0.350342	0.160645	-0.613770
08360		0.769263	-0.335274	9.966976	0.006485	0.005150	-0.000191	-0.347656	0.156006	-0.610596
08361		0.769113	-0.334999	9.979266	0.013733	-0.001335	-0.002289	-0.350098	0.158203	-0.616455
08362		0.775291	-0.328488	9.948719	-0.004768	-0.000954	-0.000954	-0.352539	0.158447	-0.619141
08363		0.768972	-0.335509	9.967053	0.003052	0.001717	-0.008392	-0.352295	0.156006	-0.619141
08364		0.780905	-0.311118	9.924325	-0.001907	0.002861	0.007629	-0.352539	0.158447	-0.616455
08365		0.775336	-0.336205	9.960906	-0.010681	-0.003624	-0.005341	-0.350098	0.156006	-0.616211
08366		0.763630	-0.354807	9.985241	0.005150	-0.006294	0.002861	-0.350098	0.156006	-0.616211
08367		0.756440	-0.341580	9.991492	0.004578	0.007820	0.003052	-0.352783	0.160645	-0.610840
08368		0.767968	-0.366033	10.009775	-0.004196	0.004387	-0.001717	-0.354736	0.154053	-0.615967
08369		0.769013	-0.348063	9.960934	-0.003624	0.000763	-0.004578	-0.347656	0.160400	-0.622314
08370		0.811739	-0.348234	9.930321	0.000954	-0.001335	-0.000191	-0.354736	0.154053	-0.615967
08371		0.787630	-0.341409	9.979240	0.006866	-0.005150	-0.011444	-0.352539	0.156250	-0.610352
08372		0.757259	-0.346904	9.966958	0.004959	0.000954	0.003624	-0.347656	0.160400	-0.619629
08373		0.763119	-0.341343	9.924318	0.009155	-0.003624	0.000000	-0.355225	0.160889	-0.607910
08374		0.769618	-0.340881	9.973029	0.000572	-0.005531	-0.007629	-0.354980	0.160645	-0.619385
08375		0.780985	-0.329539	9.973167	0.000954	0.005341	-0.000763	-0.347412	0.153809	-0.618896
08376		0.786817	-0.353875	9.912111	0.002289	-0.000572	-0.004005	-0.352539	0.156250	-0.610352
08377		0.800044	-0.347825	9.930384	0.001526	-0.009727	0.000000	-0.354736	0.151855	-0.610107
08378		0.788463	-0.360056	9.954725	-0.001907	-0.002670	-0.012970	-0.354980	0.156250	-0.616211
08379		0.787649	-0.329093	9.899895	0.009918	-0.005913	-0.001526	-0.352295	0.156006	-0.619141
08380		0.787836	-0.321945	9.960868	0.011063	0.002098	-0.009346	-0.350098	0.160645	-0.619385
08381		0.762977	-0.305166	9.936521	0.000191	-0.000763	0.000000	-0.352783	0.158447	-0.607666
08382		0.805726	-0.317405	9.973047	0.001717	-0.001335	0.003052	-0.357422	0.156250	-0.610352
08383		0.775414	-0.311288	9.930399	-0.000763	-0.005150	-0.007629	-0.350342	0.158447	-0.610596
08384		0.775231	-0.335436	10.003609	0.006676	0.008011	-0.004768	-0.352539	0.156250	-0.616211
08385		0.781334	-0.348052	9.985340	-0.003815	-0.001335	-0.009918	-0.355225	0.158447	-0.607666
08386		0.774976	-0.348335	9.954757	-0.001907	0.005722	-0.010681	-0.352539	0.154053	-0.613037
08387		0.781580	-0.347526	9.979235	0.007629	-0.006676	0.001526	-0.352539	0.160645	-0.619385
08388		0.770307	-0.334412	9.973024	0.012016	-0.011826	-0.003815	-0.352539	0.158447	-0.616455
08389		0.775267	-0.335806	9.869372	-0.003052	-0.002098	-0.009918	-0.352539	0.156250	-0.616211
08390		0.787527	-0.293017	10.009679	0.005150	0.000191	0.005150	-0.352539	0.160645	-0.616455
08391		0.769186	-0.323028	10.003666	0.009155	-0.002861	0.000000	-0.352539	0.160645	-0.616455
08392		0.775350	-0.328934	9.930420	-0.004196	0.001717	-0.001526	-0.354736	0.154053	-0.615967
08393		0.756672	-0.353744	9.960959	0.005341	0.003242	0.001526	-0.354980	0.156250	-0.613281
08394		0.787684	-0.341165	9.918162	0.003433	-0.014496	0.003815	-0.350342	0.158447	-0.610596
08395		0.762893	-0.353898	9.960945	0.002480	0.000763	0.004578	-0.354980	0.156250	-0.616211
08396		0.769082	-0.347268	9.973150	0.008392	-0.002480	-0.006104	-0.350098	0.158203	-0.616455
08397		0.774619	-0.341186	10.009827	0.011444	0.010872	-0.009918	-0.349854	0.156006	-0.622070
08398		0.779877	-0.328247	9.948858	0.003624	0.006676	-0.004768	-0.347656	0.158203	-0.616455
08399		0.775259	-0.310578	9.918226	0.013733	-0.002098	-0.005341	-0.352783	0.160645	-0.607910
08400		0.787518	-0.303625	9.979257	0.004196	0.000572	-0.001717	-0.352539	0.156250	-0.616211
08401		0.757132	-0.311160	9.930401	0.002289	-0.005913	-0.001526	-0.353027	0.163086	-0.605225
08402		0.763711	-0.311341	9.918094	-0.005150	-0.004005	-0.000763	-0.352539	0.160645	-0.619385
08403		0.817896	-0.329294	9.997566	0.006104	-0.000572	0.002289	-0.350098	0.156006	-0.613281
08404		0.768785	-0.347254	9.960960	0.001526	0.005150	0.000572	-0.354736	0.151611	-0.618652
08405		0.751107	-0.372757	9.918168	-0.009155	-0.007439	-0.003052	-0.350342	0.158447	-0.607910
08406		0.794355	-0.373062	9.979047	0.003624	-0.004387	-0.006294	-0.352539	0.158447	-0.613525
08407		0.781291	-0.286794	9.973143	0.000763	-0.000572	-0.008392	-0.352539	0.156250	-0.610352
08408		0.787798	-0.323008	9.985233	0.006866	-0.008583	-0.010109	-0.352539	0.158447	-0.619141
08409		0.769184	-0.322766	10.021985	0.014496	-0.002861	0.001526	-0.357422	0.154053	-0.610107
08410		0.781546	-0.291567	9.912111	0.001335	-0.000191	-0.000191	-0.354980	0.156250	-0.610352
08411		0.781476	-0.305207	9.942608	-0.000572	-0.004578	0.000763	-0.352539	0.156250	-0.616211
08412		0.769103	-0.323599	9.966970	0.000000	0.006294	0.004578	-0.350098	0.156006	-0.616211
08413		0.756839	-0.354254	9.954825	-0.005150	0.000000	-0.001526	-0.357422	0.158691	-0.610596
08414		0.775444	-0.366615	9.948618	0.003242	-0.005913	-0.001717	-0.354980	0.158447	-0.610596
08415		0.786995	-0.384123	9.918257	0.008392	0.007057	0.004578	-0.352539	0.156250	-0.616211
08416		0.786911	-0.364844	9.954831	0.011826	-0.006294	-0.003815	-0.352539	0.158447	-0.616455
08417		0.787352	-0.347579	9.954845	0.006104	0.000191	-0.004578	-0.347656	0.156006	-0.619141
08418		0.769168	-0.341592	9.967019	-0.007439	-0.002480	-0.000763	-0.354980	0.160645	-0.616455
08419		0.769123	-0.323378	10.021970	0.001526	-0.001335	-0.008392	-0.352539	0.158447	-0.613525
08420		0.805252	-0.334782	9.930390	0.014305	0.010300	-0.002480	-0.352539	0.156250	-0.607666
08421		0.769189	-0.299154	9.973131	-0.001335	-0.003052	0.003815	-0.352783	0.160645	-0.613770
08422		0.775818	-0.310915	9.930312	0.011826	-0.008011	0.008202	-0.354980	0.154053	-0.613037
08423		0.726476	-0.360417	9.924294	-0.005341	-0.003624	0.012207	-0.357178	0.154053	-0.618652
08424		0.763104	-0.348621	9.924229	-0.001144	0.002480	-0.000954	-0.347412	0.153809	-0.618896
08425		0.768506	-0.396606	9.967087	0.002289	0.010872	-0.002289	-0.349854	0.153809	-0.618896
08426		0.768000	-0.377881	9.985357	0.006294	-0.001717	-0.008392	-0.357422	0.158447	-0.616211
08427		0.762804	-0.359634	9.960965	0.008392	0.003242	-0.014496	-0.354980	0.156250	-0.616211
08428		0.769142	-0.334356	9.936510	0.009346	-0.007629	-0.003815	-0.349854	0.153809	-0.618896
08429		0.775362	-0.311474	9.918190	-0.003815	-0.004387	0.001526	-0.352539	0.160645	-0.616455
08430		0.769198	-0.336156	9.912032	-0.000191	0.004768	-0.006104	-0.350098	0.156006	-0.613281
08431		0.787279	-0.305245	9.960941	0.000000	0.000954	0.017548	-0.352783	0.162842	-0.611084
08432		0.756490	-0.342016	9.973060	0.000000	0.002861	0.007439	-0.352295	0.151611	-0.618652
08433		0.781927	-0.354042	9.997504	-0.000763	-0.013542	0.000000	-0.352539	0.156250	-0.610352
08434		0.794421	-0.372649	9.948560	-0.004768	0.007439	0.000572	-0.352539	0.156250	-0.613281
08435		0.738448	-0.396532	9.942641	0.004005	0.001526	0.000763	-0.355225	0.163086	-0.610840
08436		0.774673	-0.378071	9.960962	0.001526	0.005531	0.003815	-0.352539	0.156250	-0.613281
08437		0.812225	-0.359704	9.997536	0.007629	-0.008965	-0.005341	-0.352295	0.153809	-0.621826
08438		0.763636	-0.347029	9.973065	0.001335	0.003624	-0.010872	-0.350098	0.158203	-0.616455
08439		0.793425	-0.304871	9.954846	0.005341	0.000954	-0.009918	-0.352539	0.160645	-0.616455
08440		0.781799	-0.304445	9.948685	0.003242	-0.012970	0.000763	-0.350098	0.158203	-0.616455
08441		0.768773	-0.280761	9.973165	0.000191	0.005341	0.002289	-0.352539	0.158447	-0.616455
08442		0.781282	-0.323891	10.021916	-0.006294	-0.012016	-0.001526	-0.354980	0.156250	-0.613281
08443		0.793682	-0.366046	9.991443	0.003052	-0.004387	-0.003052	-0.354736	0.156250	-0.618896
08444		0.769773	-0.378197	9.991330	-0.001144	-0.007057	0.002098	-0.352539	0.156250	-0.616211
08445		0.763132	-0.408731	9.942621	0.004005	-0.003815	-0.001526	-0.350342	0.160645	-0.616699
08446		0.769282	-0.390081	9.979163	0.002480	0.001335	-0.010109	-0.354980	0.160645	-0.619385
08447		0.762945	-0.372407	9.942623	-0.002098	0.000000	-0.003052	-0.354980	0.158447	-0.616211
08448		0.769131	-0.335856	9.997461	0.001526	-0.001335	-0.012398	-0.352539	0.156250	-0.613281
08449		0.769535	-0.298750	9.985323	0.006104	-0.009727	-0.004578	-0.357422	0.158691	-0.613281
08450		0.776201	-0.334848	9.979154	0.006104	-0.002289	0.008202	-0.354980	0.158447	-0.616211
08451		0.768951	-0.310799	9.973167	0.009918	0.001717	0.003815	-0.352783	0.162842	-0.611084
08452		0.787533	-0.365546	9.985312	-0.005722	-0.007439	0.000763	-0.352539	0.158447	-0.613525
08453		0.775438	-0.353670	9.991444	0.006866	-0.005913	0.002289	-0.357422	0.156250	-0.613281
08454		0.757415	-0.389840	9.948643	0.004387	-0.000191	0.001335	-0.352539	0.156250	-0.613281
08455		0.763392	-0.408889	9.997526	0.000763	-0.008965	-0.002289	-0.347900	0.162598	-0.619629
08456		0.757122	-0.378433	9.948678	-0.000954	0.011826	-0.008583	-0.350098	0.156006	-0.616211
08457		0.787702	-0.372243	9.973120	0.000763	-0.006676	-0.008392	-0.354980	0.158447	-0.619141
08458		0.758011	-0.341273	9.960818	0.008011	-0.009918	-0.007820	-0.354736	0.151855	-0.612793
08459		0.787501	-0.311038	10.003658	0.004578	-0.002861	-0.003052	-0.352295	0.156006	-0.621826
08460		0.787701	-0.329278	10.003556	-0.003052	-0.001335	0.003052	-0.352539	0.154053	-0.610352
08461		0.787205	-0.329218	9.954858	0.006866	0.003242	-0.007629	-0.355225	0.158447	-0.607666
08462		0.774662	-0.341287	9.979251	-0.003242	0.002098	-0.000954	-0.352539	0.158447	-0.613525
08463		0.750771	-0.377941	9.979263	0.009155	-0.000572	-0.005341	-0.352539	0.158447	-0.619141
08464		0.781143	-0.352922	9.973157	0.002670	0.002098	0.001335	-0.354980	0.156250	-0.616211
08465		0.768937	-0.408561	9.967065	0.006866	0.002480	-0.008392	-0.350098	0.160400	-0.622314
08466		0.756813	-0.365255	10.009756	0.005531	-0.005150	-0.003052	-0.359863	0.158691	-0.613281
08467		0.744821	-0.335896	9.991434	-0.004578	-0.003624	-0.006866	-0.355225	0.156250	-0.601807
08468		0.776023	-0.342250	9.924183	0.000763	-0.010109	0.003624	-0.352539	0.158447	-0.613525
08469		0.775336	-0.341561	10.015863	0.004768	-0.003815	0.000763	-0.354980	0.158447	-0.613525
08470		0.751372	-0.335316	9.954712	-0.000191	-0.007057	-0.001526	-0.354980	0.158447	-0.616211
08471		0.762892	-0.310936	9.985366	0.006866	0.000954	0.000000	-0.354980	0.158447	-0.622070
08472		0.799042	-0.335580	9.930435	-0.010872	0.008392	0.003624	-0.352783	0.162842	-0.613770
08473		0.763258	-0.372950	9.973096	-0.013733	-0.005913	-0.012970	-0.352539	0.158447	-0.622070
08474		0.782184	-0.361944	9.979011	-0.010490	-0.007057	-0.005531	-0.359863	0.158691	-0.610352
08475		0.762646	-0.390508	9.985379	0.001526	0.006294	-0.010681	-0.350098	0.156006	-0.613281
08476		0.792945	-0.365497	9.985358	0.009918	-0.002861	-0.007057	-0.352539	0.154053	-0.613037
08477		0.757000	-0.341103	9.942638	0.012970	-0.002861	-0.012970	-0.352783	0.162842	-0.616699
08478		0.787977	-0.315602	9.930407	0.009155	-0.006866	0.002289	-0.354980	0.158447	-0.613525
08479		0.781510	-0.292579	9.985343	0.007629	-0.005150	-0.002289	-0.347656	0.153809	-0.616211
08480		0.805849	-0.334612	9.979187	0.006676	0.005722	0.003624	-0.352295	0.153809	-0.615967
08481		0.793373	-0.329522	9.967050	0.001717	0.001526	0.004578	-0.347656	0.156006	-0.613525
08482		0.805441	-0.383542	9.960974	0.018311	0.000381	0.006866	-0.352539	0.156250	-0.616211
08483		0.780810	-0.378448	9.912143	0.000000	0.008583	0.007629	-0.350098	0.151611	-0.610107
08484		0.786443	-0.347454	9.954849	0.011063	-0.000954	0.002289	-0.354980	0.160645	-0.616455
08485		0.781327	-0.347686	9.979249	0.003815	-0.001335	-0.006104	-0.350342	0.158447	-0.604980
08486		0.787376	-0.340926	9.966968	0.008774	0.001907	-0.013161	-0.352539	0.156250	-0.613281
08487		0.781297	-0.347870	9.991452	0.000191	-0.000763	-0.005341	-0.354980	0.154053	-0.610107
08488		0.799423	-0.317085	9.960863	0.005722	0.002861	-0.003242	-0.352539	0.158447	-0.613525
08489		0.781098	-0.317283	9.942642	0.001526	0.003242	-0.006104	-0.350098	0.160400	-0.622314
08490		0.756273	-0.329471	9.918228	0.000572	0.003624	0.001335	-0.357422	0.158447	-0.616211
08491		0.775257	-0.342010	9.960922	-0.004578	-0.002098	-0.003815	-0.355225	0.160645	-0.613525
08492		0.775497	-0.366709	9.918104	-0.000381	-0.003242	0.000572	-0.352539	0.158447	-0.613525
08493		0.781212	-0.359895	10.046397	0.003815	0.000954	-0.005341	-0.354980	0.160645	-0.619385
08494		0.787494	-0.341439	9.899883	-0.001335	-0.004387	-0.010681	-0.359619	0.156494	-0.615967
08495		0.781386	-0.347497	9.899906	0.008392	-0.002861	0.003052	-0.352539	0.156250	-0.616211
08496		0.793757	-0.365267	9.997469	0.003433	-0.000191	-0.002480	-0.352539	0.158447	-0.613525
08497		0.799419	-0.341865	9.942636	-0.002289	0.003242	-0.011444	-0.354980	0.156250	-0.610352
08498		0.793104	-0.324068	9.936516	-0.007820	0.001335	0.000572	-0.359863	0.160889	-0.619141
08499		0.781362	-0.329394	9.936521	0.004005	-0.002289	0.000763	-0.352539	0.156250	-0.607666
08500		0.781160	-0.341328	9.954767	0.003052	0.005913	-0.007820	-0.354980	0.158447	-0.619141
08501		0.787467	-0.335407	9.924317	0.005341	-0.002098	-0.005341	-0.355225	0.160645	-0.613525
08502		0.775471	-0.371503	9.942530	0.004387	-0.002480	-0.005531	-0.347656	0.153809	-0.613281
08503		0.781506	-0.372012	9.924308	0.006104	-0.005150	0.000000	-0.352539	0.158447	-0.616455
08504		0.757535	-0.364976	9.912021	0.012779	-0.004196	-0.007820	-0.354980	0.158447	-0.616211
08505		0.793379	-0.341718	9.912118	0.001717	0.001526	0.001526	-0.357422	0.156250	-0.613281
08506		0.769065	-0.359957	9.973130	0.001335	-0.004387	0.003052	-0.354980	0.156250	-0.616211
08507		0.793341	-0.354216	9.912111	-0.004578	0.002480	-0.003815	-0.352783	0.158447	-0.607666
08508		0.750720	-0.341772	9.948632	0.009727	-0.005341	-0.004768	-0.350098	0.160645	-0.619385
08509		0.763265	-0.341736	9.942604	0.001526	-0.006676	0.003815	-0.352783	0.156250	-0.604736
08510		0.800153	-0.360035	9.960840	-0.000954	-0.000191	-0.006104	-0.352539	0.158447	-0.619141
08511		0.781572	-0.347732	9.924297	0.003815	-0.006676	0.005341	-0.352539	0.158447	-0.616455
08512		0.794590	-0.335389	9.930280	-0.000191	-0.011063	-0.006866	-0.352783	0.160645	-0.613770
08513		0.799602	-0.305119	9.918211	0.000954	-0.000763	-0.002289	-0.349854	0.153809	-0.624756
08514		0.775425	-0.336049	9.881558	-0.007439	-0.005531	-0.003052	-0.350098	0.156006	-0.619141
08515		0.763217	-0.353692	9.930410	0.005341	-0.005150	-0.012207	-0.354980	0.158447	-0.622070
08516		0.775976	-0.372004	9.948598	-0.005341	-0.007057	-0.000954	-0.352539	0.158447	-0.616455
08517		0.799450	-0.335602	9.906018	0.001717	0.002289	-0.001526	-0.350342	0.160645	-0.610840
08518		0.793355	-0.353962	9.851057	-0.001335	-0.003624	-0.003052	-0.352295	0.153809	-0.615967
08519		0.768470	-0.341675	9.912158	0.002289	0.011635	-0.002289	-0.349854	0.158203	-0.627930
08520		0.773684	-0.335388	9.887724	0.002670	0.006294	0.004387	-0.354736	0.156250	-0.618896
08521		0.780959	-0.330274	9.899903	-0.012970	0.005531	0.010681	-0.354736	0.154053	-0.618896
08522		0.792552	-0.336917	9.893730	0.003815	0.004959	-0.004578	-0.357178	0.156250	-0.618896
08523		0.769161	-0.360316	9.918196	-0.004387	-0.002289	-0.002289	-0.352783	0.158447	-0.610596
08524		0.793722	-0.347848	9.905923	0.010300	-0.001335	-0.004768	-0.357422	0.158691	-0.613281
08525		0.787087	-0.336054	9.918222	-0.007629	0.005531	-0.004578	-0.352295	0.160645	-0.627930
08526		0.780593	-0.354397	9.930440	0.007439	0.001717	-0.000191	-0.350098	0.158447	-0.613525
08527		0.756572	-0.372256	9.912132	0.000763	0.005531	-0.005341	-0.354980	0.156250	-0.607422
08528		0.792457	-0.341495	9.899944	0.003433	0.008965	-0.009346	-0.350098	0.156006	-0.613281
08529		0.787127	-0.353794	9.906031	0.003815	0.004768	-0.005341	-0.352295	0.158203	-0.625000
08530		0.786668	-0.347169	9.912138	0.006676	0.004387	-0.004768	-0.352295	0.156006	-0.619141
08531		0.786999	-0.335627	9.924347	0.001526	0.007057	0.002289	-0.352539	0.158447	-0.613525
08532		0.780466	-0.341879	9.948726	-0.003052	0.000191	0.006676	-0.359863	0.160889	-0.619141
08533		0.781360	-0.335540	9.985348	0.003242	-0.002289	0.002289	-0.354980	0.158447	-0.616211
08534		0.781376	-0.359714	9.948648	0.004005	0.001335	-0.000763	-0.352295	0.153809	-0.615967
08535		0.799711	-0.372305	9.875476	0.000191	-0.003052	0.000000	-0.354736	0.156250	-0.618896
08536		0.787584	-0.354245	9.918117	-0.003433	0.001335	-0.006104	-0.354980	0.158447	-0.613525
08537		0.775194	-0.347757	9.893800	0.002480	-0.000763	-0.005341	-0.350098	0.158203	-0.622070
08538		0.787754	-0.341613	9.991423	-0.000572	-0.007820	-0.005531	-0.352783	0.162842	-0.616699
08539		0.757549	-0.335647	9.912057	0.000763	-0.014305	-0.002289	-0.345215	0.158203	-0.619385
08540		0.759029	-0.354268	9.948472	-0.006294	-0.014877	-0.012970	-0.352295	0.149414	-0.615723
08541		0.757196	-0.360473	9.985311	-0.006866	-0.007439	0.006104	-0.354736	0.156250	-0.621826
08542		0.751602	-0.354468	9.979148	0.005913	-0.004005	-0.000954	-0.347656	0.156006	-0.619141
08543		0.775375	-0.366161	9.924300	0.000954	-0.004578	-0.000763	-0.354980	0.156250	-0.607422
08544		0.788060	-0.372176	9.954718	0.002289	-0.006294	-0.006294	-0.357422	0.156250	-0.613281
08545		0.757162	-0.353945	10.015847	0.001526	-0.006676	0.004578	-0.350098	0.156006	-0.619141
08546		0.769782	-0.335405	9.948629	0.003624	-0.003242	-0.003242	-0.352539	0.158447	-0.613525
08547		0.775298	-0.335483	9.954829	0.003815	-0.002861	-0.005341	-0.360107	0.160889	-0.610596
08548		0.812031	-0.292628	9.973050	-0.001144	0.000572	-0.004005	-0.352295	0.153809	-0.621826
08549		0.781471	-0.335344	9.906000	0.006866	-0.004387	-0.002289	-0.352539	0.158447	-0.616455
08550		0.793589	-0.316671	9.936449	0.000572	0.005150	-0.004005	-0.354736	0.154053	-0.615967
08551		0.775300	-0.359979	9.905998	0.002480	-0.003052	-0.001526	-0.355225	0.160645	-0.610840
08552		0.775314	-0.378180	9.930336	0.000763	0.002480	-0.002289	-0.352539	0.160645	-0.619385
08553		0.805516	-0.372486	9.973150	-0.003624	0.003052	-0.002289	-0.352539	0.156250	-0.616211
08554		0.780789	-0.342403	9.948729	-0.004768	0.001717	-0.003242	-0.357178	0.158447	-0.622070
08555		0.799715	-0.305010	10.021965	0.003242	-0.003052	-0.000763	-0.350098	0.156006	-0.619141
08556		0.775598	-0.347340	9.924218	0.005341	-0.003242	-0.002480	-0.352295	0.156006	-0.624756
08557		0.750658	-0.322891	9.960962	0.011444	0.001717	-0.006866	-0.357666	0.165283	-0.619629
08558		0.787484	-0.334805	9.942593	-0.004196	-0.006866	0.012016	-0.352295	0.156006	-0.619141
08559		0.775197	-0.366508	9.905991	-0.005341	-0.001335	0.008392	-0.354980	0.160645	-0.619385
08560		0.768993	-0.354391	9.973070	0.005722	0.002861	0.001335	-0.357178	0.158447	-0.622070
08561		0.781861	-0.366030	9.930379	0.003052	-0.012016	-0.007629	-0.352539	0.160645	-0.622314
08562		0.776501	-0.372054	9.966928	-0.000954	-0.004005	-0.005531	-0.352539	0.156250	-0.616211
08563		0.775214	-0.353204	9.948754	0.016022	-0.001335	-0.000763	-0.354736	0.156250	-0.624756
08564		0.763349	-0.327815	9.930404	0.004959	-0.006294	-0.000763	-0.350098	0.156006	-0.613281
08565		0.774955	-0.323634	9.906016	-0.002861	0.003815	0.001526	-0.355225	0.158447	-0.607666
08566		0.799711	-0.348309	9.936472	-0.000191	-0.012779	0.004387	-0.357178	0.154053	-0.615967
08567		0.781285	-0.372045	9.942634	0.005531	-0.000763	0.001526	-0.354980	0.162842	-0.622314
08568		0.750649	-0.378014	9.973148	-0.001526	0.001717	-0.000954	-0.354980	0.158447	-0.619141
08569		0.769372	-0.366293	9.936495	-0.001526	-0.006676	0.001526	-0.354980	0.158447	-0.619141
08570		0.782409	-0.372497	9.924183	-0.000191	-0.009727	-0.004578	-0.354980	0.158447	-0.616211
08571		0.768814	-0.335754	9.887711	-0.001526	0.004768	-0.003815	-0.354980	0.154053	-0.613037
08572		0.787141	-0.323886	9.948703	-0.004578	-0.005150	-0.004768	-0.350098	0.153809	-0.613281
08573		0.769180	-0.353712	9.954834	0.006104	-0.002861	0.003052	-0.352539	0.160645	-0.625244
08574		0.787520	-0.341474	9.893708	-0.003242	0.002480	-0.001717	-0.352539	0.156250	-0.613281
08575		0.781699	-0.317412	9.936487	-0.000763	-0.008965	-0.002289	-0.357422	0.158447	-0.616211
08576		0.781846	-0.347905	10.009694	0.001144	0.005531	-0.008583	-0.349854	0.158203	-0.625000
08577		0.769347	-0.347953	9.918187	-0.001526	-0.005913	-0.006104	-0.352295	0.153809	-0.618896
08578		0.763907	-0.372448	9.997435	0.000954	-0.007820	-0.002480	-0.354980	0.158447	-0.616211
08579		0.793223	-0.366622	9.930423	-0.008392	0.004768	-0.001526	-0.357422	0.160889	-0.613525
08580		0.793036	-0.360700	9.936529	0.004959	-0.000954	-0.004768	-0.352539	0.156250	-0.607666
08581		0.775484	-0.341668	9.930398	0.002289	-0.006676	-0.003815	-0.355225	0.156250	-0.604736
08582		0.775540	-0.329444	9.966966	-0.000954	0.005531	-0.000763	-0.352539	0.156250	-0.613281
08583		0.781176	-0.311631	9.924311	-0.007629	0.001717	-0.006866	-0.348145	0.162842	-0.608154
08584		0.762937	-0.361150	9.942507	-0.004768	-0.004196	0.011253	-0.350342	0.160645	-0.613770
08585		0.763165	-0.353924	9.967027	0.001717	-0.004578	0.001526	-0.349854	0.156006	-0.622070
08586		0.793896	-0.365647	9.973062	0.008965	-0.000954	-0.005341	-0.354980	0.154053	-0.613037
08587		0.774953	-0.359716	9.942656	0.007629	0.004005	-0.003052	-0.354980	0.160645	-0.619385
08588		0.793451	-0.340870	9.967017	0.003052	-0.007439	-0.003052	-0.352539	0.154053	-0.613037
08589		0.787626	-0.341758	9.905986	0.000000	-0.005150	-0.009918	-0.354736	0.154053	-0.615967
08590		0.794177	-0.323617	9.973026	-0.002861	-0.004768	-0.003052	-0.352539	0.158447	-0.613525
08591		0.762741	-0.347632	9.954859	0.005341	0.004005	-0.000763	-0.354736	0.154053	-0.615967
08592		0.774455	-0.341063	9.973170	0.004959	0.004387	-0.002480	-0.352539	0.158447	-0.613525
08593		0.763344	-0.341273	9.967028	0.010681	-0.008202	0.002289	-0.352539	0.160645	-0.622314
08594		0.788083	-0.334875	9.973047	-0.002480	0.000572	0.003052	-0.352539	0.156250	-0.616211
08595		0.781736	-0.347897	9.960899	0.000000	-0.009727	-0.000763	-0.357422	0.158691	-0.613281
08596		0.769796	-0.360280	9.912023	-0.004196	0.004387	-0.009155	-0.354980	0.154053	-0.613037
08597		0.781365	-0.359868	9.918213	0.004768	-0.002289	-0.000763	-0.354980	0.158447	-0.613525
08598		0.781269	-0.329082	9.991377	0.002098	0.003624	-0.005531	-0.354980	0.160645	-0.619385
08599		0.781236	-0.304920	10.034189	0.005341	0.000191	0.003052	-0.354980	0.158447	-0.610596
08600		0.774889	-0.328740	9.967066	0.007057	0.003433	-0.005531	-0.352539	0.156250	-0.613281
08601		0.775296	-0.323331	9.973138	0.003242	-0.003052	0.001526	-0.359863	0.158691	-0.610352
08602		0.787983	-0.335400	9.973026	0.002480	-0.007057	0.005341	-0.357422	0.156250	-0.615967
08603		0.774563	-0.317095	9.918268	0.006104	0.011635	0.003815	-0.359863	0.158691	-0.616211
08604		0.768049	-0.359515	9.906083	0.000000	-0.004768	-0.005341	-0.350098	0.158447	-0.613525
08605		0.768931	-0.353727	9.924335	0.005531	0.002289	-0.000763	-0.354980	0.156250	-0.610352
08606		0.768462	-0.341011	9.881625	0.005531	0.006294	-0.009346	-0.350098	0.156006	-0.610596
08607		0.775028	-0.323413	9.936535	0.001717	0.002289	0.003052	-0.354980	0.158447	-0.610596
08608		0.768970	-0.347912	9.942607	-0.001907	-0.004387	0.003052	-0.347656	0.158203	-0.616455
08609		0.762940	-0.341963	9.936518	-0.003815	0.000191	-0.006104	-0.357422	0.156250	-0.615967
08610		0.769024	-0.372518	9.924229	0.004005	0.000191	0.005341	-0.352295	0.156006	-0.619141
08611		0.769196	-0.359971	9.912102	0.002289	-0.002861	-0.006104	-0.355225	0.160645	-0.613525
08612		0.788308	-0.359444	9.973013	0.009346	-0.013351	-0.001717	-0.352539	0.158447	-0.616455
08613		0.774984	-0.347637	9.967063	0.005341	0.003242	0.000763	-0.355225	0.160645	-0.613525
08614		0.750914	-0.365542	9.997523	0.003433	-0.011063	-0.005341	-0.350342	0.156250	-0.607666
08615		0.762676	-0.360089	10.003683	0.000191	0.005341	-0.002289	-0.352539	0.158447	-0.616455
08616		0.780990	-0.316821	9.905999	0.010872	-0.006104	-0.006104	-0.352539	0.158447	-0.613525
08617		0.799375	-0.323373	10.003681	0.001526	0.004005	-0.009155	-0.352539	0.156250	-0.610352
08618		0.774699	-0.347453	9.930434	0.005150	0.001335	-0.000191	-0.354980	0.160645	-0.619385
08619		0.775223	-0.348142	9.918198	-0.005341	-0.001335	-0.006104	-0.354492	0.151611	-0.621582
08620		0.781165	-0.342309	10.009686	0.001144	0.003624	-0.000763	-0.352295	0.151611	-0.621582
08621		0.781185	-0.359873	9.967055	0.003815	0.001717	-0.011444	-0.354980	0.158447	-0.610596
08622		0.775304	-0.341178	9.918194	0.004005	-0.006676	-0.009918	-0.354980	0.156250	-0.616211
08623		0.775453	-0.353598	9.942618	0.007629	-0.005913	-0.006866	-0.352783	0.162842	-0.611084
08624		0.763528	-0.358969	9.930337	0.007248	-0.000191	-0.004005	-0.354736	0.151855	-0.615723
08625		0.762981	-0.341844	10.003657	-0.001526	-0.000572	-0.007629	-0.352539	0.160645	-0.619385
08626		0.781985	-0.347904	9.881449	0.001907	-0.012970	0.000572	-0.354980	0.158447	-0.613525
08627		0.762799	-0.354074	9.906014	-0.002289	0.003242	-0.011444	-0.354980	0.156250	-0.616211
08628		0.774549	-0.341586	9.942665	0.008011	0.006294	-0.000763	-0.352539	0.156250	-0.610352
08629		0.762999	-0.371949	9.960947	0.007629	-0.001335	0.003815	-0.349854	0.156006	-0.624756
08630		0.775562	-0.359473	9.960911	-0.000954	-0.006294	-0.003815	-0.352539	0.158447	-0.613525
08631		0.793043	-0.366335	9.930448	-0.003052	0.008583	-0.006866	-0.354980	0.158447	-0.619141
08632		0.756154	-0.366389	9.912100	0.001526	-0.003242	-0.008583	-0.354980	0.156250	-0.613281
08633		0.781227	-0.347619	9.936535	0.004578	0.000954	-0.013733	-0.347656	0.156006	-0.616211
08634		0.750533	-0.329407	9.954832	-0.005913	0.002098	-0.000191	-0.352295	0.156006	-0.621826
08635		0.781089	-0.354089	9.997568	-0.001335	0.003052	0.004578	-0.352539	0.160645	-0.625244
08636		0.780952	-0.335490	9.997565	0.008011	-0.001717	0.001526	-0.357666	0.160889	-0.610596
08637		0.769416	-0.360671	9.948681	-0.011444	-0.007439	-0.001526	-0.350342	0.158447	-0.610596
08638		0.775973	-0.367177	9.936327	0.002861	-0.002861	-0.009346	-0.354980	0.156250	-0.616211
08639		0.787993	-0.335345	9.967002	0.006866	-0.012779	-0.001526	-0.355225	0.160645	-0.610840
08640		0.795250	-0.347073	9.948597	0.002670	-0.010872	-0.006866	-0.347656	0.156006	-0.616211
08641		0.805475	-0.311419	9.973155	-0.002861	0.003815	-0.000763	-0.352539	0.156250	-0.607666
08642		0.780723	-0.348371	9.899911	-0.002480	0.003242	-0.008583	-0.357422	0.156250	-0.615967
08643		0.787580	-0.353796	9.948720	0.003815	-0.004387	-0.004578	-0.357422	0.156494	-0.607422
08644		0.781799	-0.347770	9.942510	-0.005341	-0.003242	-0.003815	-0.347656	0.158203	-0.616455
08645		0.793601	-0.341412	10.003664	0.007629	-0.002861	-0.000763	-0.347412	0.153564	-0.627686
08646		0.787851	-0.335030	10.003547	-0.002480	-0.004005	-0.006294	-0.352539	0.158447	-0.619141
08647		0.787923	-0.365965	9.979212	0.004578	-0.011253	-0.004578	-0.352539	0.158447	-0.613525
08648		0.770436	-0.341201	9.966931	0.001907	-0.004768	-0.006294	-0.350098	0.158203	-0.616455
08649		0.781705	-0.305193	9.967005	-0.000763	-0.008965	-0.005341	-0.357422	0.156250	-0.613281
08650		0.770140	-0.323536	9.930308	0.000381	-0.004578	-0.007057	-0.352295	0.153809	-0.618896
08651		0.793945	-0.360326	9.954787	-0.004578	-0.009727	-0.002289	-0.350098	0.156006	-0.616211
08652		0.812885	-0.336033	9.972945	0.002670	-0.003242	-0.000954	-0.352295	0.153809	-0.618896
08653		0.757088	-0.372171	9.948717	0.003052	-0.005150	0.002289	-0.347900	0.162842	-0.611084
08654		0.781650	-0.366167	9.942532	-0.002480	0.001335	0.005913	-0.354980	0.160645	-0.616455
08655		0.793533	-0.342155	9.948712	-0.007629	-0.001335	-0.005341	-0.352295	0.156006	-0.619141
08656		0.805594	-0.306223	9.918122	-0.006485	0.003624	-0.009155	-0.352539	0.158447	-0.619141
08657		0.769010	-0.335899	9.924312	-0.004387	0.000763	-0.003052	-0.352783	0.160645	-0.607910
08658		0.762567	-0.329432	9.973091	0.012779	0.005531	0.000763	-0.352539	0.156250	-0.613281
08659		0.769011	-0.323311	9.893807	0.003242	0.000763	-0.003815	-0.355225	0.158447	-0.607666
08660		0.799841	-0.334826	10.003652	0.011444	-0.007439	-0.002289	-0.354736	0.156250	-0.618896
08661		0.781311	-0.378165	9.936528	0.005341	-0.001335	0.003052	-0.357422	0.158691	-0.613281
08662		0.774934	-0.372084	9.924331	-0.005150	0.006294	-0.002480	-0.352539	0.156250	-0.613281
08663		0.787386	-0.353893	9.936525	0.002480	-0.000763	0.003052	-0.352295	0.153809	-0.618896
08664		0.793554	-0.335153	9.942631	0.006485	-0.001717	-0.006866	-0.350098	0.156006	-0.619141
08665		0.787726	-0.347667	9.948709	0.004578	-0.007439	-0.001526	-0.354980	0.158447	-0.616211
08666		0.757964	-0.328641	9.936412	0.010300	-0.008774	-0.014687	-0.354736	0.154053	-0.615967
08667		0.763223	-0.341820	9.942604	0.000000	-0.005913	0.006104	-0.354736	0.156250	-0.621826
08668		0.763186	-0.360349	10.003586	-0.002861	0.006485	0.000763	-0.357422	0.158447	-0.616211
08669		0.787391	-0.372115	9.948735	0.004005	-0.000763	0.000000	-0.357422	0.154053	-0.610107
08670		0.793202	-0.402448	9.960962	0.003052	0.004578	0.013542	-0.354980	0.154053	-0.610107
08671		0.769114	-0.378068	9.936531	0.006866	-0.001335	-0.002289	-0.352539	0.156250	-0.607666
08672		0.775180	-0.353155	9.979259	0.003433	0.001335	-0.002480	-0.352539	0.158447	-0.616455
08673		0.769158	-0.341507	9.985353	0.005341	-0.002098	-0.006104	-0.347656	0.151611	-0.610107
08674		0.787657	-0.340759	9.966953	0.008965	-0.002098	-0.004768	-0.357422	0.156250	-0.615967
08675		0.750583	-0.305009	9.930436	0.003242	0.003052	-0.001526	-0.352783	0.158447	-0.610596
08676		0.775140	-0.292598	9.997532	0.001526	-0.007439	-0.002289	-0.350098	0.156006	-0.613281
08677		0.799823	-0.322940	10.003659	0.010681	-0.005150	-0.003052	-0.352783	0.158447	-0.607666
08678		0.800387	-0.328442	9.966921	0.002098	-0.007057	0.001526	-0.359619	0.151855	-0.615723
08679		0.787506	-0.372217	9.985343	0.001526	-0.002861	-0.005341	-0.347412	0.156006	-0.622070
08680		0.776019	-0.384009	9.930291	0.006104	-0.011635	-0.004768	-0.349854	0.153809	-0.618896
08681		0.769613	-0.371840	9.985325	0.009155	-0.011253	-0.004578	-0.354736	0.154053	-0.618896
08682		0.758255	-0.352949	9.979139	0.004005	-0.005531	0.000763	-0.347656	0.158203	-0.616455
08683		0.769346	-0.328697	9.942633	0.017548	-0.005913	-0.005341	-0.354980	0.156250	-0.613281
08684		0.775252	-0.290906	9.906053	0.006676	0.009537	-0.004005	-0.350098	0.158203	-0.619385
08685		0.781518	-0.299081	9.979227	-0.000763	-0.005150	-0.007629	-0.354980	0.158447	-0.619141
08686		0.787909	-0.317348	9.973047	0.003433	-0.001907	0.010490	-0.354980	0.160645	-0.616455
08687		0.793489	-0.353616	9.930431	0.007629	-0.000572	-0.002289	-0.354736	0.151611	-0.618652
08688		0.805635	-0.389390	9.942648	0.009537	0.000572	0.000572	-0.350098	0.156006	-0.619141
08689		0.787314	-0.378259	9.960947	0.003242	0.000763	0.000763	-0.352539	0.160645	-0.616455
08690		0.793201	-0.378080	9.985366	0.000191	0.003624	-0.010681	-0.352295	0.153809	-0.615967
08691		0.781155	-0.348188	9.997556	-0.005341	0.001717	0.005341	-0.352295	0.156006	-0.621826
08692		0.793584	-0.330309	9.960815	-0.001717	-0.006104	-0.008583	-0.347656	0.158203	-0.616455
08693		0.780822	-0.335693	9.979282	0.000000	0.008583	0.000000	-0.350342	0.160645	-0.610840
08694		0.774188	-0.305517	10.009766	-0.005150	0.002098	-0.003052	-0.352295	0.153809	-0.615967
08695		0.787635	-0.335914	9.967011	-0.003815	-0.005913	0.007629	-0.347656	0.158203	-0.616455
08696		0.799942	-0.335901	9.960859	0.004959	0.002098	-0.005531	-0.352539	0.156250	-0.613281
08697		0.805892	-0.384541	9.985332	-0.000763	-0.004387	-0.004578	-0.354980	0.158447	-0.613525
08698		0.782429	-0.365789	9.918074	0.010300	-0.016022	-0.001717	-0.352539	0.158447	-0.616455
08699		0.769484	-0.371678	9.899892	0.012970	-0.008965	0.001526	-0.350342	0.158447	-0.607910
08700		0.745911	-0.346545	10.015746	0.001335	-0.008011	-0.012970	-0.347900	0.162598	-0.619629
08701		0.769264	-0.347439	9.954833	0.009155	-0.004387	-0.001526	-0.354980	0.158447	-0.619141
08702		0.788163	-0.316487	9.893671	0.000572	-0.008583	-0.002289	-0.354980	0.158447	-0.613525
08703		0.756910	-0.329877	9.979233	-0.006104	-0.001335	-0.004578	-0.352783	0.154053	-0.601562
08704		0.793372	-0.360887	10.015781	-0.004196	0.003624	-0.000763	-0.357422	0.156250	-0.615967
08705		0.805181	-0.378455	9.960975	0.000000	0.009346	0.009155	-0.350342	0.160645	-0.607910
08706		0.792325	-0.372737	9.918215	-0.006676	0.003624	-0.000954	-0.352539	0.158447	-0.616455
08707		0.799562	-0.372492	9.948724	-0.003624	0.000000	-0.000763	-0.359863	0.158691	-0.610352
08708		0.775336	-0.348109	9.930316	0.003052	-0.003624	-0.005531	-0.352539	0.158447	-0.613525
08709		0.799717	-0.329518	9.967031	0.000763	-0.002861	-0.008392	-0.352783	0.160645	-0.613770
08710		0.769713	-0.310788	9.985239	0.006866	-0.007248	-0.013924	-0.354980	0.154053	-0.613037
08711		0.787009	-0.317553	10.003684	-0.003815	0.007057	-0.005341	-0.354980	0.158447	-0.622070
08712		0.762381	-0.323799	9.942614	0.001144	-0.004005	-0.003242	-0.352539	0.160645	-0.616455
08713		0.757507	-0.329411	9.991410	0.003815	-0.013542	0.003052	-0.352783	0.160645	-0.613770
08714		0.794913	-0.371513	9.924135	0.010490	-0.002480	0.001335	-0.354980	0.156250	-0.616211
08715		0.805929	-0.390721	9.960912	-0.002289	-0.005150	-0.004578	-0.354736	0.154053	-0.618896
08716		0.800605	-0.360035	9.954703	0.004959	-0.011253	-0.004005	-0.352539	0.156250	-0.613281
08717		0.787427	-0.329548	9.960933	0.000954	-0.001526	0.001526	-0.354980	0.160645	-0.616455
08718		0.805513	-0.299318	9.924234	-0.004387	0.004768	0.006866	-0.359619	0.154053	-0.615723
08719		0.769763	-0.335796	9.991396	-0.002289	-0.014305	-0.003052	-0.354980	0.158447	-0.616211
08720		0.770746	-0.317658	9.985140	0.000381	-0.005531	0.002098	-0.352539	0.156250	-0.616211
08721		0.781702	-0.353572	9.942607	0.008392	-0.008965	-0.003815	-0.352539	0.158447	-0.619141
08722		0.770419	-0.371172	9.991330	0.005150	-0.010109	-0.006866	-0.349854	0.153809	-0.615967
08723		0.787041	-0.372349	9.960961	-0.000763	0.006294	-0.000763	-0.352539	0.158447	-0.616455
08724		0.786869	-0.385012	9.979218	-0.008774	-0.003242	-0.010872	-0.347412	0.151611	-0.613037
08725		0.757097	-0.378752	9.985319	-0.006866	-0.005150	-0.002289	-0.359863	0.158691	-0.613281
08726		0.781472	-0.341965	9.960879	0.009537	0.005341	-0.006294	-0.354980	0.158447	-0.616211
08727		0.787832	-0.304963	9.948699	0.004578	-0.009727	0.003815	-0.357178	0.158447	-0.622070
08728		0.764555	-0.322626	9.948600	0.009727	-0.013351	0.001335	-0.347412	0.156006	-0.622070
08729		0.781501	-0.335632	9.997541	0.001526	-0.005150	0.003815	-0.352783	0.158447	-0.610596
08730		0.794013	-0.335584	9.930319	0.000572	-0.001717	0.003624	-0.354980	0.154053	-0.613037
08731		0.787583	-0.396562	9.893787	0.003242	-0.004578	-0.001526	-0.357422	0.154053	-0.610107
08732		0.806159	-0.389901	9.918125	0.007629	-0.001717	-0.014687	-0.354980	0.156250	-0.616211
08733		0.762974	-0.378188	9.887701	0.004768	-0.000763	0.001526	-0.350098	0.153809	-0.613281
08734		0.775419	-0.335425	9.979223	-0.002098	-0.005531	0.002289	-0.352295	0.153809	-0.615967
08735		0.769341	-0.311083	9.985335	0.003815	-0.005913	-0.001526	-0.359619	0.156250	-0.618896
08736		0.781872	-0.323041	9.954737	0.001144	-0.000954	-0.001717	-0.350098	0.153809	-0.613281
08737		0.775202	-0.311230	9.985349	0.001526	-0.001335	0.006866	-0.354736	0.158447	-0.625000
08738		0.781653	-0.341821	9.966921	-0.000191	-0.006294	0.003624	-0.354736	0.156250	-0.621826
08739		0.799972	-0.384287	9.967017	0.004578	-0.008202	-0.001526	-0.352783	0.158447	-0.607666
08740		0.781666	-0.395889	9.979198	0.009346	0.006866	0.002098	-0.354736	0.156250	-0.621826
08741		0.775186	-0.366350	9.930412	-0.002861	-0.000763	-0.000763	-0.345459	0.160400	-0.608154
08742		0.787425	-0.366626	9.948628	-0.001717	-0.000954	-0.013161	-0.352539	0.156250	-0.613281
08743		0.751345	-0.335272	9.851042	0.007629	-0.012016	-0.012207	-0.357178	0.156250	-0.624756
08744		0.770258	-0.304271	9.918124	0.002670	0.000572	-0.002480	-0.352539	0.154053	-0.613037
08745		0.774750	-0.304894	9.924356	0.006104	0.007820	0.005341	-0.354736	0.156250	-0.618896
08746		0.786077	-0.359587	9.948765	0.001335	0.008202	0.005913	-0.357422	0.160889	-0.619385
08747		0.769084	-0.372299	9.899900	0.000191	-0.000763	-0.001526	-0.354736	0.156250	-0.618896
08748		0.817753	-0.378273	9.954754	0.002670	0.002480	-0.003052	-0.350098	0.156006	-0.616211
08749		0.793763	-0.360042	9.942605	0.000763	-0.005913	-0.006866	-0.357666	0.158691	-0.607666
08750		0.794352	-0.359770	9.887583	0.004387	-0.006294	-0.006294	-0.352295	0.153809	-0.615967
08751		0.799566	-0.328984	9.954854	0.011444	0.000191	-0.009155	-0.349854	0.156006	-0.622070
08752		0.812148	-0.303584	9.924299	0.008392	-0.007439	-0.007629	-0.357178	0.154053	-0.618652
08753		0.781576	-0.304850	9.936508	0.006866	-0.006676	0.003815	-0.352295	0.153809	-0.615967
08754		0.769437	-0.322768	9.936447	0.002861	0.003624	-0.000954	-0.352539	0.156250	-0.616211
08755		0.775723	-0.360265	9.979198	-0.003815	-0.011253	-0.008392	-0.354736	0.154053	-0.621582
08756		0.764545	-0.397311	9.979014	-0.003815	-0.009346	0.002861	-0.354980	0.156250	-0.613281
08757		0.793569	-0.372118	9.942625	0.004005	-0.002289	0.000763	-0.352539	0.156250	-0.607666
08758		0.782001	-0.383777	9.911988	0.008774	-0.011063	-0.006104	-0.350098	0.153809	-0.613281
08759		0.775225	-0.347229	9.936541	0.012970	-0.001335	-0.006866	-0.354980	0.154053	-0.613037
08760		0.787204	-0.315732	9.973174	0.005722	0.005150	-0.007820	-0.354736	0.154053	-0.615967
08761		0.787612	-0.316923	9.979242	0.009155	-0.005150	-0.000763	-0.352539	0.158447	-0.613525
08762		0.781434	-0.310312	9.912041	0.002670	0.005722	0.005913	-0.352295	0.153809	-0.618896
08763		0.762689	-0.335457	9.954861	0.005341	0.004768	0.007629	-0.350342	0.158447	-0.610596
08764		0.749978	-0.378098	9.906017	-0.001144	0.003624	0.001335	-0.354736	0.151855	-0.615723
08765		0.775701	-0.384527	9.905962	0.000000	-0.011253	0.001526	-0.352539	0.151855	-0.607178
08766		0.770167	-0.384219	9.985266	0.007248	-0.001144	-0.009346	-0.357422	0.158447	-0.619141
08767		0.787517	-0.384287	9.906002	0.003815	-0.002861	-0.011444	-0.352539	0.158447	-0.616455
08768		0.799822	-0.340861	9.966967	0.010490	0.000763	-0.007820	-0.354980	0.156250	-0.610352
08769		0.793383	-0.310755	9.960960	0.009918	0.001717	-0.007629	-0.352539	0.160645	-0.622314
08770		0.775090	-0.304481	9.912091	-0.005341	-0.002670	-0.001526	-0.352539	0.158447	-0.613525
08771		0.768928	-0.317452	9.930427	-0.001335	0.002289	0.000763	-0.354980	0.158447	-0.619141
08772		0.780900	-0.329876	9.991457	-0.001144	0.000954	0.009918	-0.352783	0.158447	-0.607666
08773		0.781535	-0.384615	9.948704	-0.001526	-0.005913	0.004578	-0.354980	0.158447	-0.616211
08774		0.769244	-0.396910	9.991389	0.000191	0.007439	0.000000	-0.352539	0.158447	-0.619141
08775		0.774944	-0.427025	9.936549	0.004578	0.004005	0.001526	-0.354980	0.158447	-0.619141
08776		0.799407	-0.359465	9.899886	0.005150	-0.006485	-0.001526	-0.352295	0.156006	-0.619141
08777		0.799114	-0.323358	10.003702	0.001526	0.009346	-0.012970	-0.352539	0.156250	-0.613281
08778		0.756338	-0.317259	9.936487	-0.002289	-0.008774	-0.012398	-0.352539	0.158447	-0.619141
08779		0.775515	-0.280806	9.967011	-0.000763	-0.007439	0.001526	-0.354980	0.158447	-0.613525
08780		0.763382	-0.305045	9.912038	0.004959	0.004387	0.005150	-0.350098	0.158447	-0.613525
08781		0.781114	-0.335154	9.954863	0.011444	0.002480	0.007629	-0.352539	0.154053	-0.607422
08782		0.786996	-0.383267	9.918227	0.005150	0.000954	0.012779	-0.352539	0.154053	-0.613037
08783		0.781285	-0.415226	9.979238	-0.003624	-0.000763	0.001526	-0.352295	0.158203	-0.625000
08784		0.805821	-0.378845	9.942521	0.000381	-0.002861	-0.007629	-0.350098	0.156006	-0.616211
08785		0.781753	-0.378379	9.954796	0.000000	-0.009727	-0.009918	-0.354980	0.156250	-0.607422
08786		0.807016	-0.317348	9.924190	0.000191	-0.007820	-0.006294	-0.352539	0.156250	-0.616211
08787		0.794000	-0.304555	9.997534	0.011444	-0.010490	-0.012207	-0.354980	0.154053	-0.610107
08788		0.770122	-0.303933	9.954739	0.001907	-0.000572	-0.000954	-0.350098	0.160645	-0.619385
08789		0.781549	-0.311305	9.948706	-0.000763	-0.005913	-0.003052	-0.352295	0.156006	-0.621826
08790		0.757398	-0.365976	9.966959	0.006676	0.000191	0.000572	-0.352539	0.158447	-0.619141
08791		0.818237	-0.366369	9.918177	-0.003052	-0.007439	0.001526	-0.350342	0.160645	-0.613770
08792		0.781878	-0.397038	9.954745	0.001144	0.000954	-0.003815	-0.352539	0.156250	-0.616211
08793		0.769352	-0.384454	9.942606	0.000763	-0.005913	-0.007629	-0.354980	0.154053	-0.613037
08794		0.757248	-0.384166	9.966968	0.004387	0.003624	-0.010872	-0.347900	0.162598	-0.619629
08795		0.787426	-0.329627	9.979241	-0.000572	-0.001526	0.002289	-0.352295	0.153809	-0.618896
08796		0.799692	-0.323685	9.924218	0.000381	-0.000954	0.006676	-0.357178	0.154053	-0.618652
08797		0.775363	-0.317121	9.930411	0.005341	-0.004387	0.000763	-0.352539	0.160645	-0.616455
08798		0.788198	-0.316962	9.973011	-0.000954	-0.009346	0.002098	-0.357178	0.154053	-0.615967
08799		0.787349	-0.353852	9.948736	0.003242	0.000000	0.002289	-0.356934	0.154053	-0.624512
08800		0.769115	-0.378082	9.954823	0.000763	-0.003242	-0.003052	-0.354980	0.158447	-0.619141
08801		0.732315	-0.402618	9.967057	0.004005	0.002289	-0.003815	-0.350098	0.156006	-0.610596
08802		0.762509	-0.384019	9.991471	0.001717	0.003242	-0.009346	-0.352295	0.156006	-0.619141
08803		0.793423	-0.353747	9.899914	0.004578	0.000954	-0.007629	-0.352295	0.151611	-0.618652
08804		0.775348	-0.316746	9.924298	0.003052	-0.005913	-0.002289	-0.350098	0.153809	-0.610352
08805		0.775143	-0.311001	9.875497	0.005341	0.000191	-0.003815	-0.352539	0.154053	-0.613037
08806		0.792937	-0.310687	9.948768	0.002670	0.008392	0.004387	-0.354736	0.151855	-0.615723
08807		0.781206	-0.329633	9.948733	-0.000572	0.000763	0.003815	-0.352783	0.158447	-0.610596
08808		0.775244	-0.366773	9.930384	-0.007248	-0.005913	0.002861	-0.359863	0.158691	-0.619141
08809		0.787362	-0.384715	10.015861	-0.004578	0.000191	-0.009155	-0.350098	0.156006	-0.613281
08810		0.774778	-0.390994	9.966979	0.002098	0.007439	-0.000954	-0.354980	0.158447	-0.613525
08811		0.762750	-0.366077	9.967060	0.002289	0.004005	-0.005341	-0.350342	0.158447	-0.610596
08812		0.768613	-0.359707	9.942638	0.003433	0.001335	-0.010109	-0.352539	0.156250	-0.613281
08813		0.757152	-0.347816	9.979227	0.000763	-0.005913	-0.012207	-0.354736	0.156250	-0.624756
08814		0.769887	-0.323236	9.893687	0.003242	-0.005531	0.001335	-0.349854	0.153809	-0.618896
08815		0.757057	-0.335496	9.905996	0.003815	-0.004387	-0.002289	-0.352783	0.160645	-0.610840
08816		0.787864	-0.347397	9.942526	0.003052	-0.002861	0.007439	-0.352539	0.158447	-0.619141
08817		0.774761	-0.372346	9.942656	-0.000763	0.007820	-0.001526	-0.357422	0.156250	-0.613281
08818		0.774587	-0.378897	9.979218	-0.007820	-0.004005	-0.001717	-0.350098	0.156006	-0.613281
08819		0.775065	-0.372545	9.948728	-0.004387	0.001526	0.003052	-0.347656	0.156006	-0.616211
08820		0.762596	-0.360415	9.948653	0.003052	0.003242	-0.004578	-0.349854	0.153809	-0.615967
08821		0.762900	-0.341563	9.924327	0.004768	0.000763	0.000763	-0.354980	0.154053	-0.613037
08822		0.786859	-0.304385	9.936568	0.007820	0.008202	-0.005341	-0.352539	0.158447	-0.616455
08823		0.788038	-0.305000	9.973096	0.003052	-0.013542	-0.006104	-0.352295	0.156006	-0.619141
08824		0.794991	-0.322860	9.972949	0.006866	-0.004005	0.000572	-0.350098	0.158203	-0.619385
08825		0.775012	-0.334961	9.948766	0.015259	0.002480	0.006866	-0.352295	0.156006	-0.621826
08826		0.769134	-0.364840	9.954803	-0.001907	-0.007248	-0.009155	-0.354736	0.158447	-0.625000
08827		0.781804	-0.390707	9.905959	-0.001526	-0.011253	0.001526	-0.352539	0.158447	-0.619141
08828		0.788682	-0.366305	9.924107	0.001335	-0.005341	-0.007820	-0.352539	0.156250	-0.613281
08829		0.750502	-0.366615	9.906008	-0.008392	0.004768	-0.003052	-0.354980	0.158447	-0.613525
08830		0.768470	-0.354121	9.960876	0.014114	0.002289	-0.009918	-0.354980	0.158447	-0.619141
08831		0.787694	-0.329226	9.912094	0.006866	-0.006676	-0.006104	-0.354980	0.158447	-0.619141
08832		0.775524	-0.322711	9.973075	0.001907	0.005913	-0.003242	-0.359619	0.154297	-0.613037
08833		0.769156	-0.353959	9.960930	0.000954	-0.002289	0.000763	-0.354980	0.154053	-0.613037
08834		0.751166	-0.366285	9.966925	-0.001717	-0.004768	-0.003052	-0.354980	0.158447	-0.619141
08835		0.757061	-0.353922	9.875474	0.001717	-0.004578	0.000763	-0.352539	0.154053	-0.613037
08836		0.769629	-0.378141	9.912005	0.003433	-0.004005	-0.003052	-0.357422	0.158691	-0.610596
08837		0.793539	-0.372547	9.973129	-0.005341	-0.001335	-0.008392	-0.352539	0.156250	-0.616211
08838		0.793565	-0.360436	9.905915	0.002861	-0.000191	-0.001717	-0.354736	0.151855	-0.615723
08839		0.787504	-0.317514	9.954818	-0.003052	-0.002861	-0.005341	-0.352539	0.156250	-0.607666
08840		0.763446	-0.342249	10.015751	-0.004196	-0.004005	-0.011635	-0.350098	0.158447	-0.613525
08841		0.774844	-0.335363	9.967076	0.006104	0.006294	-0.006866	-0.357422	0.156250	-0.615967
08842		0.768775	-0.322954	9.948698	-0.001335	-0.007820	-0.006866	-0.350098	0.156006	-0.616211
08843		0.781626	-0.341443	9.973127	0.006866	-0.007439	-0.003052	-0.352539	0.156250	-0.616211
08844		0.781665	-0.334731	9.966975	0.005722	0.005150	-0.002480	-0.354980	0.158447	-0.613525
08845		0.799703	-0.354421	9.936497	-0.008392	-0.002861	0.000000	-0.357422	0.158447	-0.619141
08846		0.769553	-0.348526	9.918108	0.004387	-0.004387	-0.003815	-0.352295	0.153809	-0.615967
08847		0.762695	-0.347801	9.960960	0.002289	0.004768	0.003815	-0.359619	0.156494	-0.615967
08848		0.774898	-0.353809	9.912084	0.000381	-0.006676	0.003815	-0.357422	0.156250	-0.615967
08849		0.763886	-0.353683	9.936462	0.006104	-0.018883	-0.004578	-0.347412	0.156006	-0.622070
08850		0.783116	-0.341333	9.942428	-0.002480	-0.000954	-0.003815	-0.350098	0.153809	-0.613281
08851		0.775367	-0.342137	9.979219	-0.006866	-0.004387	-0.000763	-0.350098	0.160645	-0.619385
08852		0.769669	-0.323985	9.924211	0.004959	-0.004768	-0.004768	-0.357422	0.156250	-0.610352
08853		0.775069	-0.342196	9.930412	-0.008392	0.001717	-0.004578	-0.352539	0.156250	-0.616211
08854		0.756554	-0.342105	9.991385	0.011253	0.001717	0.003052	-0.352539	0.156250	-0.616211
08855		0.793498	-0.347656	10.003667	0.004768	-0.000763	-0.001526	-0.355225	0.160889	-0.607910
08856		0.787187	-0.334878	9.985379	0.009346	0.003052	0.008202	-0.350098	0.158203	-0.616455
08857		0.756991	-0.348103	9.979229	-0.004578	-0.002861	-0.006866	-0.357422	0.160889	-0.616455
08858		0.782085	-0.336514	9.942477	-0.006866	-0.011063	0.000572	-0.359863	0.158691	-0.613281
08859		0.787769	-0.372637	9.918168	-0.006866	-0.008202	-0.004578	-0.352295	0.151611	-0.621582
08860		0.782298	-0.366764	10.009557	0.001144	-0.005150	-0.014687	-0.352783	0.160645	-0.613770
08861		0.787833	-0.341578	9.942596	0.004578	-0.009727	0.002289	-0.357422	0.156250	-0.613281
08862		0.776170	-0.347239	9.985260	0.006294	-0.001717	0.008965	-0.352295	0.153809	-0.621826
08863		0.763048	-0.335581	9.967036	0.002480	-0.002289	0.003052	-0.352783	0.158447	-0.610596
08864		0.775279	-0.353890	9.942533	-0.001907	0.001335	-0.004578	-0.350098	0.158447	-0.613525
08865		0.774694	-0.365995	9.942670	0.003815	0.009346	-0.006866	-0.352539	0.160645	-0.625244
08866		0.767687	-0.359455	9.967082	0.005150	0.008202	-0.003815	-0.352539	0.156250	-0.613281
08867		0.787574	-0.342014	9.881567	-0.004578	-0.004387	-0.002289	-0.352783	0.160645	-0.613770
08868		0.769513	-0.360635	9.942523	-0.001144	-0.001717	-0.001717	-0.349854	0.151611	-0.618652
08869		0.799289	-0.366545	9.985361	-0.006866	0.005531	-0.002289	-0.354736	0.158447	-0.625000
08870		0.768477	-0.330408	9.924314	-0.000954	-0.000191	0.002098	-0.354980	0.158447	-0.619141
08871		0.799710	-0.329382	9.954829	0.003815	-0.002861	-0.004578	-0.350098	0.156006	-0.619141
08872		0.750825	-0.323534	9.930325	-0.009346	0.004196	-0.009346	-0.352295	0.156006	-0.619141
08873		0.781210	-0.365513	9.942656	0.013733	0.000954	-0.003815	-0.350342	0.160645	-0.610840
08874		0.768879	-0.352835	9.930419	-0.003242	0.001335	0.001335	-0.352539	0.158447	-0.613525
08875		0.781741	-0.360213	10.003620	-0.002289	-0.009727	-0.002289	-0.352783	0.158447	-0.610596
08876		0.776555	-0.366386	9.985225	0.001907	-0.008965	-0.004005	-0.354736	0.154053	-0.615967
08877		0.750685	-0.359536	9.979272	0.011444	0.000954	0.000000	-0.354980	0.160645	-0.619385
08878		0.763235	-0.340470	9.936503	0.004196	-0.007248	-0.018311	-0.350098	0.160645	-0.619385
08879		0.769441	-0.347848	9.973116	0.001526	-0.008202	0.006104	-0.354980	0.158447	-0.613525
08880		0.787914	-0.335852	9.973060	-0.003052	0.004005	0.001526	-0.354736	0.156250	-0.618896
08881		0.799694	-0.323773	9.918193	-0.005341	-0.002861	0.005341	-0.352539	0.158447	-0.616455
08882		0.763354	-0.330526	9.936402	-0.004768	-0.004768	0.008202	-0.352295	0.156006	-0.619141
08883		0.768962	-0.348271	9.936517	-0.007629	0.001717	-0.002289	-0.352783	0.158447	-0.610596
08884		0.781290	-0.354724	9.942515	0.001144	-0.004768	0.003624	-0.354736	0.156250	-0.618896
08885		0.781658	-0.341491	9.924295	0.006104	-0.008202	-0.000763	-0.350098	0.156006	-0.613281
08886		0.775738	-0.377268	9.936463	0.011253	0.003624	-0.004768	-0.357178	0.151855	-0.615723
08887		0.775766	-0.322944	9.979217	0.009918	-0.012016	-0.012207	-0.352539	0.156250	-0.610352
08888		0.794713	-0.322022	9.899812	0.008011	-0.002098	-0.004768	-0.352295	0.156006	-0.619141
08889		0.769047	-0.341893	9.967037	-0.002098	0.000000	-0.002289	-0.354980	0.158447	-0.610596
08890		0.799443	-0.299011	9.930344	0.006676	0.002480	-0.004005	-0.350098	0.153809	-0.613281
08891		0.787543	-0.354097	9.936505	-0.002289	-0.003624	-0.005341	-0.355225	0.165283	-0.619629
08892		0.787787	-0.372590	9.948628	-0.001907	-0.000954	-0.002480	-0.354736	0.154053	-0.615967
08893		0.763057	-0.341882	9.960926	-0.002289	-0.002098	-0.007629	-0.350098	0.158203	-0.622070
08894		0.757258	-0.366271	9.942519	0.002098	-0.004387	-0.007057	-0.354736	0.151855	-0.615723
08895		0.768813	-0.372376	9.960953	-0.001526	0.004768	-0.003815	-0.354736	0.154053	-0.618896
08896		0.774615	-0.336370	9.960925	-0.010300	0.001335	-0.007057	-0.352295	0.153809	-0.618896
08897		0.781815	-0.317564	9.979198	-0.003815	-0.011253	-0.002289	-0.350342	0.160645	-0.610840
08898		0.800497	-0.335794	9.936351	0.005150	0.002480	-0.006294	-0.347412	0.151611	-0.613037
08899		0.799405	-0.323486	9.954846	0.000191	0.003052	0.002289	-0.350098	0.158203	-0.619385
08900		0.769036	-0.348101	9.960905	-0.002289	-0.007439	-0.002289	-0.352295	0.156006	-0.619141
08901		0.768557	-0.347786	9.954876	0.001526	0.010109	-0.009918	-0.350342	0.160645	-0.613770
08902		0.786610	-0.378062	9.918195	0.003624	-0.006294	0.003624	-0.352295	0.156006	-0.619141
08903		0.781228	-0.378521	9.967039	-0.001526	0.000191	0.006866	-0.357178	0.158447	-0.622070
08904		0.781147	-0.360371	9.924222	0.000381	0.000191	-0.000954	-0.355225	0.160645	-0.613525
08905		0.775142	-0.329200	9.906019	0.007629	0.000191	-0.003052	-0.350098	0.156006	-0.619141
08906		0.762774	-0.365427	9.967047	0.000572	0.001335	0.002098	-0.352539	0.158447	-0.619141
08907		0.775480	-0.336070	9.954795	-0.007629	-0.006676	-0.000763	-0.352539	0.156250	-0.613281
08908		0.782181	-0.324468	9.960814	-0.003815	-0.005531	0.007439	-0.352539	0.156250	-0.610352
08909		0.793896	-0.316985	9.979226	0.008392	-0.008965	0.005341	-0.352539	0.156250	-0.607666
08910		0.800085	-0.322465	10.003602	0.005150	0.006676	-0.000191	-0.357422	0.158447	-0.616211
08911		0.756794	-0.366134	9.991461	0.001717	0.000763	0.002289	-0.352295	0.156006	-0.619141
08912		0.762759	-0.372105	9.936534	0.002289	0.001717	0.000000	-0.352295	0.156006	-0.621826
08913		0.781634	-0.353630	9.924299	0.006866	-0.007439	-0.008392	-0.355225	0.158447	-0.607666
08914		0.794341	-0.353069	9.960842	0.004196	-0.001907	-0.014687	-0.352783	0.160645	-0.613770
08915		0.762470	-0.347177	10.015930	0.014496	0.009346	0.000763	-0.354980	0.156250	-0.616211
08916		0.804835	-0.297601	9.973231	0.000763	-0.002480	-0.000763	-0.352539	0.156250	-0.616211
08917		0.799826	-0.317247	9.979231	0.002289	-0.005150	-0.005341	-0.354980	0.156250	-0.613281
08918		0.788026	-0.341700	9.924202	-0.001717	-0.004005	0.002098	-0.352539	0.158447	-0.616455
08919		0.805390	-0.347749	9.893826	0.003052	0.005531	0.000000	-0.355225	0.158447	-0.607666
08920		0.768447	-0.341594	9.967040	-0.001907	0.000572	-0.003052	-0.354736	0.156250	-0.618896
08921		0.781253	-0.366233	9.893798	-0.000572	0.000000	-0.001526	-0.354736	0.154053	-0.621582
08922		0.786892	-0.359940	9.942578	0.005150	0.009346	-0.001717	-0.352539	0.154053	-0.613037
08923		0.805781	-0.341665	9.918208	0.002480	-0.002289	-0.002289	-0.350098	0.158203	-0.619385
08924		0.800225	-0.317319	9.936386	-0.003052	-0.009346	-0.006104	-0.352539	0.156250	-0.616211
08925		0.787351	-0.317593	9.960931	-0.004578	0.000191	-0.004578	-0.354980	0.156250	-0.616211
08926		0.757441	-0.336034	9.979111	0.002480	-0.012016	-0.003242	-0.354980	0.158447	-0.622070
08927		0.769308	-0.335646	9.918194	0.000954	-0.005341	0.000000	-0.352295	0.156006	-0.619141
08928		0.763395	-0.347622	9.997475	0.006104	0.000191	0.006866	-0.354980	0.156250	-0.613281
08929		0.774957	-0.366342	9.960947	-0.003052	0.004005	-0.005341	-0.359863	0.156494	-0.613037
08930		0.793103	-0.354113	9.948735	0.003624	-0.000572	0.000763	-0.354980	0.158447	-0.610596
08931		0.774884	-0.360130	9.936543	-0.000572	0.005341	-0.001526	-0.352539	0.160645	-0.616455
08932		0.756187	-0.341738	10.009777	0.002670	0.001717	-0.005341	-0.354980	0.158447	-0.616211
08933		0.775677	-0.329344	9.967008	0.004578	-0.010490	-0.004578	-0.350342	0.162842	-0.619629
08934		0.764206	-0.328402	9.973056	0.014305	-0.004387	0.000572	-0.349854	0.153809	-0.615967
08935		0.768657	-0.311422	9.954859	-0.003052	0.007820	-0.002289	-0.352295	0.156006	-0.619141
08936		0.737670	-0.360520	9.979254	-0.001144	0.002098	-0.007057	-0.357178	0.156250	-0.618896
08937		0.762791	-0.348062	9.991461	-0.003815	0.003242	-0.007629	-0.357178	0.158447	-0.627686
08938		0.762757	-0.378888	9.997452	-0.002480	-0.001717	-0.009346	-0.359619	0.154053	-0.621582
08939		0.750868	-0.365691	9.997567	0.010681	-0.002861	0.003815	-0.347656	0.160400	-0.622314
08940		0.775653	-0.358788	10.003651	0.007248	-0.006294	-0.000763	-0.352539	0.154053	-0.613037
08941		0.775442	-0.341832	9.954810	-0.000763	-0.005913	-0.000763	-0.347900	0.162598	-0.616943
08942		0.776040	-0.317300	9.936409	0.002670	-0.006104	-0.011635	-0.352295	0.153809	-0.618896
08943		0.787542	-0.286614	9.918205	0.004578	-0.003624	-0.006104	-0.352783	0.158447	-0.610596
08944		0.769448	-0.328688	9.942544	0.008774	-0.000572	0.002861	-0.352539	0.158447	-0.613525
08945		0.776028	-0.329590	9.912040	0.000763	-0.018120	0.009918	-0.347656	0.158203	-0.622314
08946		0.764857	-0.354029	9.924113	0.001335	-0.004005	-0.000954	-0.352539	0.156250	-0.616211
08947		0.781012	-0.371896	9.967075	0.008392	0.004768	0.000000	-0.354980	0.158447	-0.616211
08948		0.756395	-0.382977	9.906033	0.015831	-0.000763	0.000763	-0.354736	0.156250	-0.624756
08949		0.787260	-0.365954	10.015886	0.003815	0.002480	-0.016785	-0.354736	0.156250	-0.618896
08950		0.769156	-0.353424	9.991435	0.001717	-0.005913	-0.004578	-0.354980	0.160645	-0.616455
08951		0.781447	-0.353979	9.973130	0.000191	-0.003815	-0.003815	-0.350342	0.160645	-0.610840
08952		0.769475	-0.322911	9.942546	0.011444	-0.000954	-0.001717	-0.352295	0.153809	-0.621826
08953		0.799583	-0.335366	9.973154	0.006866	-0.000572	0.003815	-0.350342	0.156250	-0.604736
08954		0.781063	-0.334817	9.954859	0.006866	0.003433	0.009727	-0.352295	0.156006	-0.619141
08955		0.775022	-0.324022	9.973137	-0.010681	0.002480	0.000763	-0.357422	0.156250	-0.613281
08956		0.799007	-0.349281	9.936441	-0.004196	0.005150	0.006866	-0.352539	0.158447	-0.616455
08957		0.799675	-0.378519	9.918200	-0.002098	-0.002289	-0.000763	-0.350098	0.153809	-0.613281
08958		0.793807	-0.371930	9.918130	0.012779	-0.002861	-0.009346	-0.352539	0.158447	-0.619141
08959		0.781407	-0.384427	9.979239	0.001717	-0.003052	-0.002289	-0.352783	0.160645	-0.610840
08960		0.793799	-0.335320	9.973054	0.006104	-0.001335	0.006676	-0.352295	0.153809	-0.615967
08961		0.769238	-0.335669	9.905992	0.000191	-0.003815	-0.003815	-0.350098	0.160400	-0.625244
08962		0.775429	-0.335443	9.966962	0.004768	0.002098	-0.003242	-0.350098	0.156006	-0.613281
08963		0.781410	-0.317112	9.997555	0.004578	-0.002861	-0.010681	-0.352539	0.156250	-0.616211
08964		0.775383	-0.341004	9.899822	0.006485	0.000954	0.001335	-0.354980	0.156250	-0.616211
08965		0.762976	-0.359988	9.887697	0.002480	-0.000763	0.000763	-0.354980	0.158447	-0.616211
08966		0.781274	-0.378341	9.979242	-0.002098	-0.000572	0.002289	-0.354980	0.156250	-0.616211
08967		0.750807	-0.378373	9.967037	0.000954	-0.001526	0.000763	-0.352539	0.156250	-0.613281
08968		0.769081	-0.384371	9.960852	0.002670	0.001335	-0.004578	-0.352539	0.156250	-0.616211
08969		0.763540	-0.359869	9.899865	0.004578	-0.012016	-0.003052	-0.350098	0.160400	-0.625244
08970		0.776078	-0.322356	9.991397	0.012779	0.004387	-0.004005	-0.352295	0.151611	-0.618652
08971		0.775378	-0.353520	9.930419	0.009155	-0.004387	-0.007629	-0.354980	0.156250	-0.616211
08972		0.787680	-0.340575	9.973063	0.005722	0.000954	0.004387	-0.352295	0.153809	-0.615967
08973		0.793605	-0.329844	9.960917	-0.005341	-0.002861	-0.003052	-0.352539	0.158447	-0.616455
08974		0.811683	-0.324260	9.924245	-0.004005	0.007439	0.000763	-0.350342	0.160645	-0.613770
08975		0.775229	-0.335555	9.997557	0.002480	-0.001526	-0.003815	-0.350098	0.156006	-0.616211
08976		0.762599	-0.359573	9.948776	0.006485	0.008965	-0.005531	-0.349854	0.153809	-0.615967
08977		0.738607	-0.384273	9.960941	0.004768	-0.001526	-0.003052	-0.350098	0.158447	-0.613525
08978		0.763472	-0.359218	9.930401	0.007820	-0.008583	-0.006294	-0.352539	0.156250	-0.616211
08979		0.781001	-0.329426	9.985376	0.003815	0.004768	0.006866	-0.354736	0.156250	-0.618896
08980		0.798963	-0.329468	9.973141	-0.003433	0.000572	-0.001717	-0.350098	0.158447	-0.613525
08981		0.775633	-0.329435	9.973112	0.003052	-0.009727	-0.000763	-0.354980	0.158447	-0.613525
08982		0.770199	-0.317381	9.930300	-0.005913	-0.004005	-0.002289	-0.352539	0.156250	-0.616211
08983		0.781095	-0.347711	9.899921	0.004005	0.003052	0.002289	-0.352539	0.154053	-0.613037
08984		0.768567	-0.359687	9.918225	0.002289	0.002098	-0.005341	-0.350098	0.156006	-0.616211
08985		0.793464	-0.353979	9.918213	0.000191	0.000000	-0.003815	-0.354736	0.158447	-0.625000
08986		0.787665	-0.365777	9.960929	0.008392	-0.006104	-0.004005	-0.352295	0.153809	-0.621826
08987		0.768893	-0.366150	9.948744	0.000763	0.003242	-0.006104	-0.350098	0.156006	-0.616211
08988		0.774601	-0.335638	9.936535	-0.001526	0.003624	-0.009346	-0.354492	0.151611	-0.621582
08989		0.769189	-0.354120	9.930404	-0.002098	-0.003052	0.003052	-0.354736	0.160645	-0.630859
08990		0.775857	-0.348049	9.948607	0.002861	-0.008583	0.001335	-0.352295	0.156006	-0.619141
08991		0.781630	-0.310912	9.918195	0.006866	-0.007439	-0.006866	-0.352295	0.156006	-0.621826
08992		0.781958	-0.340969	9.966955	0.002670	0.001335	-0.007057	-0.352539	0.158447	-0.622070
08993		0.793147	-0.323442	9.930446	0.000763	0.006294	-0.001526	-0.352539	0.156250	-0.610352
08994		0.829352	-0.329238	9.954851	0.006676	0.001335	-0.004768	-0.354980	0.158447	-0.610596
08995		0.775141	-0.354006	9.954834	0.000191	0.000000	0.003052	-0.357422	0.158447	-0.619141
08996		0.775308	-0.348258	9.942598	-0.005341	-0.005150	-0.000763	-0.352295	0.156006	-0.621826
08997		0.781636	-0.354082	9.930387	-0.002289	-0.007439	-0.009155	-0.350098	0.158447	-0.613525
08998		0.787848	-0.329353	9.973084	0.008202	0.005531	-0.004768	-0.352295	0.156006	-0.619141
08999		0.775298	-0.353529	9.991460	0.009155	-0.002861	-0.004578	-0.354736	0.156250	-0.624756
09000		0.787862	-0.364945	9.942529	0.008011	-0.004387	-0.002480	-0.355225	0.160645	-0.613525
09001		0.787766	-0.353462	9.924303	0.010681	-0.008202	-0.003052	-0.357178	0.160645	-0.627930
09002		0.788136	-0.322079	9.997473	0.006676	-0.000191	-0.006294	-0.354980	0.160645	-0.619385
09003		0.787497	-0.336070	9.960913	-0.007629	-0.002861	-0.000763	-0.350342	0.162842	-0.611084
09004		0.775231	-0.330449	9.899820	-0.002670	0.004387	-0.009155	-0.354980	0.158447	-0.616211
09005		0.768282	-0.354065	9.936580	-0.001526	0.015450	-0.003815	-0.352295	0.156006	-0.624756
09006		0.779713	-0.347913	9.967143	0.003624	0.000191	0.000763	-0.354736	0.154053	-0.621582
09007		0.775342	-0.329326	9.960931	0.004578	-0.003624	-0.009155	-0.354980	0.158447	-0.622070
09008		0.793812	-0.347439	9.942533	-0.000381	0.000572	-0.000954	-0.354980	0.158447	-0.616211
09009		0.775383	-0.359765	9.967035	0.006104	-0.004387	-0.009918	-0.352539	0.158447	-0.622070
09010		0.787841	-0.334994	9.924221	0.000572	-0.000191	-0.000954	-0.354980	0.162842	-0.619629
09011		0.799827	-0.329717	9.942601	-0.003052	-0.005150	-0.006104	-0.347412	0.156006	-0.622070
09012		0.769749	-0.335682	9.948627	0.005913	-0.004578	-0.000954	-0.352539	0.156250	-0.616211
09013		0.787453	-0.335325	9.979253	0.007629	-0.002098	0.003052	-0.350098	0.153809	-0.610352
09014		0.794216	-0.341084	9.924273	0.001335	-0.011635	0.005341	-0.357422	0.158447	-0.616211
09015		0.793741	-0.366308	9.936497	-0.001526	-0.005913	0.005341	-0.352295	0.153809	-0.621826
09016		0.787705	-0.360266	9.948657	0.002670	0.004387	0.001335	-0.352539	0.156250	-0.616211
09017		0.769687	-0.341554	9.979207	0.004578	-0.012779	-0.003815	-0.352539	0.162842	-0.622559
09018		0.734201	-0.347037	9.936402	0.007820	-0.010872	0.000572	-0.352539	0.160645	-0.619385
09019		0.750446	-0.359937	10.009793	0.003815	0.005531	0.005341	-0.354980	0.158447	-0.613525
09020		0.775104	-0.316797	9.930388	0.005150	-0.010300	-0.011444	-0.347656	0.156006	-0.616211
09021		0.787278	-0.299290	9.942626	-0.004387	0.001526	0.000000	-0.352539	0.156250	-0.616211
09022		0.799706	-0.317897	9.960909	-0.000954	-0.006676	-0.002480	-0.352539	0.158447	-0.622070
09023		0.786995	-0.353936	10.034210	0.001526	0.007057	0.002289	-0.352539	0.158447	-0.622070
09024		0.780648	-0.353701	9.997553	0.004196	-0.003242	0.000572	-0.347656	0.158203	-0.619385
09025		0.774995	-0.360286	9.991460	-0.003624	0.003052	-0.000763	-0.354980	0.162842	-0.622314
09026		0.787009	-0.366336	9.985358	0.004768	-0.000572	-0.004578	-0.354980	0.158447	-0.616211
09027		0.787128	-0.347996	10.009780	-0.002098	0.004578	-0.002289	-0.350098	0.158447	-0.613525
09028		0.774973	-0.348127	9.942605	0.000763	-0.005913	-0.005531	-0.352539	0.156250	-0.613281
09029		0.763042	-0.354310	9.936505	-0.006104	-0.002098	0.000763	-0.352539	0.158447	-0.616455
09030		0.775387	-0.318347	9.918104	-0.007057	-0.000572	-0.013733	-0.357178	0.154053	-0.613037
09031		0.780868	-0.329762	9.967065	-0.003815	0.007820	-0.004578	-0.357178	0.151855	-0.609863
09032		0.762700	-0.323669	9.967007	0.004387	-0.010681	0.005150	-0.350342	0.160645	-0.616699
09033		0.763190	-0.347684	9.954822	0.004578	-0.005150	0.003052	-0.347656	0.156006	-0.613525
09034		0.787598	-0.359408	9.973079	0.005722	0.004959	-0.008392	-0.357178	0.154053	-0.618652
09035		0.787876	-0.366473	9.930369	-0.005341	-0.010490	-0.000763	-0.350342	0.160645	-0.616699
09036		0.775928	-0.354049	9.942476	0.010300	0.005531	-0.004005	-0.352539	0.156250	-0.613281
09037		0.756718	-0.371999	9.942648	0.006104	0.002480	-0.003052	-0.354736	0.151611	-0.618652
09038		0.763067	-0.322890	9.942596	0.000191	-0.008202	-0.003815	-0.352539	0.158447	-0.619141
09039		0.774697	-0.341495	9.960983	0.005341	0.009346	-0.009155	-0.350098	0.153809	-0.613281
09040		0.786380	-0.298934	9.948719	-0.009155	0.000572	-0.005531	-0.352295	0.151611	-0.621582
09041		0.799860	-0.342278	9.954793	-0.009918	-0.005913	-0.003052	-0.349854	0.153809	-0.615967
09042		0.800172	-0.355037	9.948632	-0.000191	-0.000572	-0.006294	-0.350342	0.160645	-0.610840
09043		0.756448	-0.372274	9.954865	0.000763	0.007820	-0.000763	-0.352539	0.158447	-0.622070
09044		0.774183	-0.335715	9.954841	-0.000381	0.002098	0.000572	-0.352539	0.156250	-0.613281
09045		0.793411	-0.365715	9.942649	0.009918	0.000954	-0.000763	-0.357178	0.156250	-0.624756
09046		0.768694	-0.359012	9.875513	0.002861	0.005150	-0.000191	-0.354736	0.151855	-0.612793
09047		0.781080	-0.335336	9.924342	0.007629	0.003242	0.005341	-0.352783	0.158447	-0.607666
09048		0.768248	-0.328591	9.912152	0.007439	0.008011	0.009727	-0.352295	0.151611	-0.621582
09049		0.775485	-0.329309	9.960920	0.005341	-0.006676	-0.003815	-0.354980	0.156250	-0.616211
09050		0.775668	-0.335196	9.979165	0.000572	0.002861	0.002098	-0.352539	0.158447	-0.616455
09051		0.768812	-0.329438	9.912132	0.003242	0.004578	0.002289	-0.352539	0.158447	-0.616455
09052		0.762712	-0.341179	9.912102	0.006104	-0.004768	-0.007629	-0.350098	0.156006	-0.610596
09053		0.781884	-0.323338	9.948685	0.003052	-0.012779	0.000763	-0.354980	0.156250	-0.607422
09054		0.746190	-0.359776	9.936310	0.000572	-0.006294	-0.004578	-0.352539	0.158447	-0.619141
09055		0.769014	-0.341869	9.912109	-0.002289	0.000954	-0.010681	-0.352295	0.156006	-0.619141
09056		0.799718	-0.323645	9.918098	0.000763	-0.005150	0.001335	-0.354736	0.156250	-0.618896
09057		0.763147	-0.341289	9.954835	0.010681	-0.004387	0.006104	-0.359863	0.163086	-0.619385
09058		0.793398	-0.309878	9.966995	0.009155	0.008774	0.002098	-0.354736	0.156250	-0.618896
09059		0.781365	-0.341659	9.991451	0.002289	-0.002098	-0.006104	-0.354980	0.158447	-0.616211
09060		0.788309	-0.359910	9.857022	0.000000	-0.015450	-0.001717	-0.352539	0.160645	-0.616455
09061		0.793309	-0.360013	9.991470	0.001717	0.003052	-0.002289	-0.357422	0.156250	-0.613281
09062		0.780777	-0.335356	9.942642	0.005150	0.001717	0.003624	-0.354736	0.151855	-0.615723
09063		0.775521	-0.317143	9.942605	0.004578	-0.007439	-0.003052	-0.352783	0.158447	-0.610596
09064		0.757480	-0.371657	9.960851	0.003433	0.000572	-0.002480	-0.347412	0.156006	-0.622070
09065		0.775468	-0.348266	9.960900	-0.006866	-0.006676	0.006104	-0.354980	0.156250	-0.610352
09066		0.763885	-0.354265	9.954728	0.009537	-0.007248	-0.007057	-0.347656	0.158203	-0.616455
09067		0.786999	-0.323533	9.936550	-0.000763	0.007057	0.002289	-0.352539	0.158447	-0.622070
09068		0.787061	-0.347704	9.924289	0.005150	-0.009155	-0.009155	-0.354980	0.158447	-0.613525
09069		0.799645	-0.323516	9.918205	-0.001526	-0.001335	-0.011444	-0.355225	0.163086	-0.613770
09070		0.793306	-0.330576	9.936418	-0.017929	0.004959	0.000000	-0.352539	0.158447	-0.622070
09071		0.781322	-0.336517	9.954801	-0.016785	-0.001335	-0.003052	-0.355225	0.158447	-0.607666
09072		0.775214	-0.343456	9.930329	0.001144	0.000572	-0.000191	-0.352539	0.154053	-0.613037
09073		0.744968	-0.359636	9.918205	0.009155	-0.006676	-0.004578	-0.354980	0.158447	-0.622070
09074		0.763438	-0.346496	9.954771	0.010490	0.003624	-0.006294	-0.345215	0.156006	-0.616455
09075		0.775591	-0.359769	9.948708	0.006866	-0.008965	0.000763	-0.352539	0.158447	-0.616455
09076		0.769575	-0.371884	9.905927	-0.004959	0.006676	-0.002289	-0.355225	0.160645	-0.613525
09077		0.781768	-0.335475	9.948697	0.004578	-0.010490	0.002289	-0.354736	0.154053	-0.621582
09078		0.788602	-0.323000	9.954726	0.002098	-0.004005	-0.000191	-0.350098	0.156006	-0.619141
09079		0.793491	-0.311090	9.918216	0.004005	-0.000763	0.002289	-0.352539	0.158447	-0.613525
09080		0.799866	-0.329246	9.954811	0.001526	-0.006294	0.004578	-0.354980	0.158447	-0.610596
09081		0.811576	-0.310654	9.942662	0.012207	0.004005	-0.004578	-0.354980	0.156250	-0.613281
09082		0.792455	-0.346439	9.954891	0.004196	0.012589	-0.003242	-0.352539	0.156250	-0.616211
09083		0.769331	-0.371873	9.967035	0.009155	-0.005913	0.003815	-0.349854	0.158203	-0.625000
09084		0.757573	-0.334582	9.960838	0.004959	-0.003242	-0.001717	-0.359375	0.151855	-0.618408
09085		0.775296	-0.365854	9.887697	0.006866	-0.002861	-0.004578	-0.349854	0.156006	-0.624756
09086		0.787802	-0.365209	9.918117	0.006676	-0.003242	-0.000954	-0.357422	0.156250	-0.615967
09087		0.769366	-0.335372	9.954820	0.006866	-0.006676	0.005341	-0.352539	0.154053	-0.604492
09088		0.781946	-0.347574	9.960824	-0.004959	-0.002480	-0.000191	-0.354736	0.151855	-0.615723
09089		0.793606	-0.329776	9.936505	-0.003624	-0.003052	0.001526	-0.354736	0.156250	-0.618896
09090		0.763003	-0.317408	9.912046	0.009346	0.004387	0.003052	-0.352295	0.156006	-0.619141
09091		0.756958	-0.329436	9.930416	0.002289	-0.002098	-0.010681	-0.352539	0.158447	-0.616455
09092		0.763408	-0.353790	9.985232	-0.001526	-0.005531	-0.000954	-0.354980	0.158447	-0.613525
09093		0.811674	-0.354404	9.991449	-0.007629	0.001717	0.004578	-0.347656	0.153809	-0.610352
09094		0.842356	-0.311152	10.058507	0.017929	-0.004578	-0.019836	-0.357422	0.160889	-0.613525
09095		0.738754	-0.138116	9.661880	0.045013	-0.004387	-0.024414	-0.359863	0.156494	-0.613037
09096		0.634140	-0.002476	9.960906	-0.018501	0.020218	0.008965	-0.349854	0.153809	-0.615967
09097		0.768839	-0.474261	10.162170	-0.083160	0.003242	0.016785	-0.352539	0.158447	-0.613525
09098		0.763063	-0.446004	9.997218	0.042343	-0.014114	0.047112	-0.350098	0.158203	-0.616455
09099		0.841150	-0.450986	9.558237	0.016785	0.022316	0.030518	-0.352539	0.151855	-0.607178
09100		0.785062	-0.495072	10.424881	-0.039101	-0.004578	0.020409	-0.352539	0.158447	-0.622070
09101		0.921935	-0.572418	9.838915	0.027466	-0.006676	0.008392	-0.359619	0.156250	-0.624512
09102		0.739183	-0.496606	9.893858	0.025558	-0.001144	-0.011635	-0.350098	0.156006	-0.616211
09103		0.774904	-0.263307	10.180660	-0.019073	0.005531	-0.029755	-0.354980	0.160645	-0.622314
09104		0.860460	-0.361453	9.820445	0.005531	-0.006104	-0.023079	-0.352295	0.151611	-0.615723
09105		0.683537	-0.274663	9.918217	-0.001526	0.001717	-0.020599	-0.352783	0.162842	-0.611084
09106		0.677379	-0.237683	10.003572	0.008774	-0.001526	-0.003052	-0.350098	0.156006	-0.619141
09107		0.811760	-0.280268	9.826675	0.009918	0.000191	-0.001526	-0.354736	0.154053	-0.615967
09108		0.707694	-0.219381	9.936526	-0.012207	0.004387	0.000572	-0.352539	0.158447	-0.616455
09109		0.731754	-0.286738	9.997611	0.003052	0.013161	0.006866	-0.352539	0.158447	-0.622070
09110		0.847505	-0.279931	9.851149	0.014114	-0.009537	0.012970	-0.349854	0.156006	-0.622070
09111		0.768464	-0.335512	9.960988	0.005341	0.010872	0.022125	-0.359863	0.160889	-0.622070
09112		0.755593	-0.458209	10.076967	-0.013161	-0.000763	0.018120	-0.359619	0.154053	-0.618652
09113		0.873298	-0.463789	9.771688	0.002289	-0.010490	0.007629	-0.354980	0.160645	-0.619385
09114		0.745339	-0.475153	9.991417	0.016403	0.004959	-0.001717	-0.359863	0.154297	-0.610107
09115		0.708292	-0.439989	10.064654	-0.011444	-0.005150	-0.011444	-0.350342	0.158447	-0.610596
09116		0.806036	-0.366796	9.802177	0.007439	0.003052	-0.024605	-0.354980	0.156250	-0.616211
09117		0.751289	-0.292355	10.040259	0.010681	-0.010490	-0.020599	-0.350342	0.158447	-0.610596
09118		0.721573	-0.273656	9.942505	-0.004196	-0.005722	-0.018311	-0.354980	0.154053	-0.613037
09119		0.793460	-0.195185	9.912112	0.001526	0.000191	-0.012970	-0.354980	0.154053	-0.604492
09120		0.793912	-0.262332	9.973106	-0.001335	-0.009155	0.001335	-0.354980	0.156250	-0.616211
09121		0.768776	-0.317377	9.973165	0.001526	0.004768	0.018311	-0.352295	0.151611	-0.618652
09122		0.823237	-0.414943	9.954852	0.002861	0.002861	0.011253	-0.352539	0.156250	-0.616211
09123		0.799054	-0.409061	9.893835	-0.002289	0.010109	0.003052	-0.352295	0.156006	-0.624756
09124		0.774141	-0.427733	9.930408	-0.004578	-0.000572	-0.006866	-0.354980	0.158447	-0.616211
09125		0.781135	-0.378146	9.954853	0.005531	0.002289	0.000763	-0.354736	0.156250	-0.621826
09126		0.798671	-0.340998	9.967100	0.005341	0.012589	-0.013924	-0.350098	0.156006	-0.616211
09127		0.732474	-0.311109	9.967042	0.002289	-0.000572	-0.015259	-0.354980	0.154053	-0.613037
09128		0.775030	-0.286318	9.918142	0.004959	0.004387	-0.004005	-0.347656	0.160400	-0.622314
09129		0.768735	-0.286550	9.930453	0.006104	0.006294	-0.003052	-0.352783	0.160645	-0.613770
09130		0.768275	-0.261534	9.997575	0.006676	0.002098	-0.003052	-0.349854	0.153809	-0.618896
09131		0.805811	-0.323489	9.936511	0.000191	-0.003052	0.003052	-0.349854	0.153809	-0.615967
09132		0.811938	-0.323734	9.948640	-0.003433	0.002480	-0.004578	-0.354736	0.156250	-0.618896
09133		0.781290	-0.402858	9.985347	-0.000572	-0.000763	-0.000763	-0.354736	0.154053	-0.618896
09134		0.793672	-0.421084	9.979142	0.003242	-0.004387	0.002098	-0.352295	0.153809	-0.615967
09135		0.799524	-0.408573	9.948748	0.006866	0.000954	-0.005341	-0.354980	0.158447	-0.610596
09136		0.775102	-0.395132	9.979281	0.017357	-0.000381	-0.016212	-0.354736	0.149414	-0.615479
09137		0.775011	-0.341055	9.936559	0.013733	0.003242	-0.015259	-0.350098	0.156006	-0.619141
09138		0.774919	-0.248995	9.924307	-0.004387	-0.000954	-0.009346	-0.352783	0.162842	-0.616699
09139		0.769010	-0.268628	9.973145	-0.002289	0.000954	-0.010681	-0.350098	0.156006	-0.619141
09140		0.768763	-0.261959	9.905943	0.013542	0.003815	-0.003052	-0.349854	0.153809	-0.618896
09141		0.757159	-0.311148	9.924296	0.003052	-0.006676	0.005341	-0.352539	0.156250	-0.616211
09142		0.776133	-0.378312	9.948600	0.000000	-0.009155	0.021935	-0.352295	0.153809	-0.618896
09143		0.793541	-0.408835	9.960935	0.001717	-0.001526	-0.003815	-0.352295	0.156006	-0.619141
09144		0.811973	-0.426648	9.960855	0.009155	-0.001717	-0.011635	-0.349854	0.153809	-0.618896
09145		0.787258	-0.390568	9.960947	0.000000	0.002480	-0.014496	-0.352539	0.158447	-0.616455
09146		0.774456	-0.317057	9.967080	0.004387	0.008202	-0.003052	-0.354736	0.154053	-0.615967
09147		0.750814	-0.298352	9.948746	0.013733	-0.001335	-0.009918	-0.359863	0.158691	-0.616211
09148		0.750736	-0.309800	9.930428	0.000381	0.002098	-0.007820	-0.352295	0.153809	-0.615967
09149		0.774836	-0.305436	9.954850	-0.005341	0.006294	-0.001526	-0.357422	0.158691	-0.613281
09150		0.781051	-0.342744	9.948681	-0.007248	-0.009537	0.003624	-0.352295	0.153809	-0.615967
09151		0.775013	-0.378629	9.991457	-0.003815	0.002480	0.005341	-0.357422	0.160645	-0.622070
09152		0.799688	-0.378828	9.966915	0.001144	-0.008202	-0.002480	-0.357178	0.158447	-0.624756
09153		0.774940	-0.396971	9.948737	-0.004578	0.004005	0.003815	-0.352539	0.158447	-0.613525
09154		0.780954	-0.390912	9.979245	0.004578	-0.003052	-0.014496	-0.352295	0.153809	-0.618896
09155		0.781101	-0.378200	10.003682	0.003815	0.003242	-0.006866	-0.347900	0.160400	-0.610840
09156		0.781239	-0.365788	9.942607	0.000000	-0.005150	-0.010681	-0.350098	0.158203	-0.616455
09157		0.763127	-0.341552	9.936517	0.004578	-0.003624	-0.004578	-0.357178	0.158447	-0.622070
09158		0.769825	-0.298692	9.973015	-0.002480	-0.007820	-0.007057	-0.354980	0.154053	-0.613037
09159		0.757024	-0.310843	9.979247	0.008392	-0.003624	-0.004578	-0.352783	0.160645	-0.607910
09160		0.769070	-0.315996	9.948679	0.011253	0.006866	0.008202	-0.352295	0.156006	-0.619141
09161		0.775549	-0.341771	9.954803	0.000763	-0.008202	0.003052	-0.352783	0.158447	-0.610596
09162		0.781957	-0.384861	9.942523	-0.006104	0.000763	0.009155	-0.357422	0.158447	-0.616211
09163		0.786812	-0.402832	9.960980	0.000000	0.010872	0.000000	-0.350098	0.156006	-0.616211
09164		0.817116	-0.390628	9.985323	0.001907	-0.007820	0.000763	-0.352539	0.158447	-0.616455
09165		0.781371	-0.335390	9.918214	0.005341	-0.002098	-0.009918	-0.357178	0.158447	-0.622070
09166		0.793730	-0.322196	9.948652	0.014114	-0.001526	-0.004005	-0.350098	0.158203	-0.619385
09167		0.769457	-0.268426	9.967013	0.002289	-0.008202	-0.003815	-0.354980	0.158447	-0.613525
09168		0.775582	-0.287041	9.930340	-0.007629	0.006676	-0.003052	-0.347656	0.156006	-0.616211
09169		0.750505	-0.354070	9.954849	-0.001335	0.004578	0.000000	-0.350098	0.158447	-0.613525
09170		0.786787	-0.348261	9.936525	-0.003242	0.001717	0.002289	-0.354736	0.156250	-0.618896
09171		0.787004	-0.377922	9.942673	0.009918	0.007057	-0.000763	-0.352539	0.154053	-0.610352
09172		0.762271	-0.395662	9.954831	0.001907	-0.001717	-0.004578	-0.347900	0.162842	-0.614014
09173		0.781975	-0.384571	9.948672	-0.001526	-0.014305	-0.006866	-0.352539	0.158447	-0.613525
09174		0.782966	-0.341953	9.917998	-0.001717	-0.005531	-0.006294	-0.349854	0.153809	-0.615967
09175		0.774844	-0.341580	9.979279	0.003815	0.006294	-0.006866	-0.352539	0.160645	-0.619385
09176		0.787054	-0.329601	9.960895	-0.008202	-0.007248	-0.004005	-0.352783	0.158447	-0.610596
09177		0.780894	-0.329526	9.954864	0.001526	0.007057	0.003052	-0.350098	0.158203	-0.619385
09178		0.774147	-0.335739	9.942641	-0.002861	0.004768	-0.000191	-0.354980	0.156250	-0.613281
09179		0.781744	-0.347651	9.967011	0.004578	-0.009727	-0.005341	-0.352783	0.160645	-0.610840
09180		0.769896	-0.359434	9.973064	0.004578	0.001717	0.008202	-0.352539	0.160645	-0.619385
09181		0.762546	-0.359930	9.930457	0.003815	0.007820	0.003052	-0.350098	0.153809	-0.613281
09182		0.792955	-0.353756	9.967011	-0.000954	-0.007057	-0.002480	-0.349854	0.153809	-0.618896
09183		0.793640	-0.347906	9.954819	0.000191	-0.003815	0.003815	-0.354980	0.158447	-0.613525
09184		0.782021	-0.323110	9.930302	0.008965	-0.009537	-0.006866	-0.352295	0.153809	-0.615967
09185		0.781347	-0.323693	9.905991	-0.003815	-0.002098	0.004578	-0.354980	0.158447	-0.616211
09186		0.787932	-0.318144	9.997424	-0.005531	-0.007820	0.002098	-0.352295	0.153809	-0.615967
09187		0.780942	-0.304438	9.979295	0.014496	0.006294	-0.003815	-0.350342	0.158447	-0.607910
09188		0.798875	-0.316067	9.906004	-0.001907	0.000191	0.005150	-0.362305	0.156494	-0.613037
