PacketCounter	SampleTimeFine	Acc_X	Acc_Y	Acc_Z	Gyr_X	Gyr_Y	Gyr_Z	Mag_X	Mag_Y	Mag_Z
07895		0.201057	0.037048	10.168463	0.008392	0.007057	0.000000	-0.408691	0.049805	-0.591797
07896		0.163742	-0.010827	10.162359	0.012016	0.005722	-0.007629	-0.408936	0.058838	-0.598633
07897		0.164282	0.012677	10.137947	0.009155	0.010109	-0.006866	-0.414062	0.061279	-0.592773
07898		0.169119	-0.010831	10.076917	0.010300	0.014496	0.001335	-0.408936	0.061035	-0.598877
07899		0.194800	0.012752	10.131845	0.010681	0.010109	-0.003815	-0.411377	0.056641	-0.592285
07900		0.175315	0.001423	10.131847	0.007439	0.012589	0.003624	-0.411377	0.054199	-0.592041
07901		0.176375	-0.012391	10.125743	-0.003815	0.012398	-0.009918	-0.413818	0.052002	-0.588867
07902		0.175182	-0.012217	10.137950	0.007248	0.011444	-0.004578	-0.408936	0.056396	-0.595459
07903		0.164245	0.000579	10.113534	0.011444	0.010872	0.000000	-0.409180	0.061035	-0.592773
07904		0.169156	-0.010837	10.113536	0.004387	0.011826	-0.004005	-0.408691	0.052002	-0.600830
07905		0.164051	-0.006213	10.137951	-0.002289	0.014687	-0.008392	-0.408936	0.056396	-0.595459
07906		0.168357	-0.006407	10.046404	-0.000381	0.020218	-0.001526	-0.404297	0.056396	-0.586426
07907		0.157912	-0.029626	10.107437	0.017548	0.015450	-0.006104	-0.411377	0.056641	-0.586426
07908		0.162537	-0.010304	10.113536	0.003624	0.012589	-0.004005	-0.408936	0.056396	-0.598389
07909		0.194415	0.012565	10.107439	0.006866	0.017738	-0.011444	-0.418701	0.059082	-0.592529
07910		0.180601	-0.004689	10.089124	0.014496	0.013733	-0.017548	-0.411377	0.054199	-0.592041
07911		0.170426	0.000353	10.113533	0.006866	0.009346	-0.006866	-0.408691	0.049805	-0.591797
07912		0.181822	-0.011355	10.168463	0.003624	0.006485	-0.000191	-0.411377	0.056641	-0.592285
07913		0.194647	0.024578	10.095227	0.003052	0.013161	-0.009918	-0.411377	0.056641	-0.586426
07914		0.198927	-0.005519	10.089134	0.005722	0.022888	-0.009346	-0.408936	0.056396	-0.595459
07915		0.200520	0.012871	10.095232	0.012970	0.017738	-0.009155	-0.411377	0.054443	-0.586182
07916		0.186917	-0.022793	10.076914	0.007439	0.009537	-0.007057	-0.406250	0.049561	-0.594727
07917		0.170272	-0.011810	10.113536	0.007629	0.012398	-0.013733	-0.411377	0.054199	-0.592041
07918		0.180977	0.019294	10.137953	0.004196	0.015640	-0.008583	-0.411133	0.054199	-0.595215
07919		0.188428	-0.018119	10.107437	0.003815	0.015450	0.001526	-0.413818	0.058838	-0.595459
07920		0.156432	0.006678	10.137949	0.005531	0.012589	-0.010681	-0.406494	0.054199	-0.586182
07921		0.176109	-0.024177	10.076921	0.004578	0.017738	-0.007629	-0.403809	0.051758	-0.594971
07922		0.161902	-0.011579	10.119647	0.004959	0.021362	0.005150	-0.408936	0.054199	-0.592285
07923		0.194490	-0.006446	10.150162	-0.006866	0.016212	-0.006104	-0.411621	0.058838	-0.583496
07924		0.180848	-0.006501	10.131846	0.007057	0.010681	-0.009155	-0.406250	0.054199	-0.598145
07925		0.164785	-0.023721	10.125734	0.013733	0.000191	0.002289	-0.411621	0.056641	-0.583252
07926		0.188400	0.001570	10.113443	0.004578	0.014114	-0.004005	-0.408691	0.052002	-0.594971
07927		0.219258	-0.011856	10.040294	0.006866	0.009346	-0.005341	-0.413818	0.056641	-0.595215
07928		0.193682	0.000626	10.137952	-0.000954	0.013351	-0.007057	-0.408691	0.052002	-0.594971
07929		0.188620	0.000513	10.131847	0.009918	0.011635	-0.010681	-0.408936	0.056641	-0.592285
07930		0.193476	-0.017259	10.089123	0.001907	0.011826	-0.001717	-0.408936	0.056641	-0.592285
07931		0.201060	-0.011848	10.119636	0.006866	0.007057	-0.011444	-0.411377	0.056641	-0.586426
07932		0.200123	0.006717	10.107432	-0.001144	0.010490	-0.003242	-0.411377	0.058838	-0.595459
07933		0.182211	-0.005830	10.089128	0.005341	0.017738	-0.004578	-0.408936	0.054199	-0.589111
07934		0.205097	0.018932	10.162366	0.002861	0.012016	0.000572	-0.411377	0.054199	-0.592041
07935		0.206892	-0.005711	10.131849	0.007629	0.012398	-0.006104	-0.411133	0.049805	-0.591797
07936		0.175069	-0.005073	10.119639	0.005150	0.011826	-0.007820	-0.408936	0.054199	-0.589111
07937		0.182444	-0.011818	10.064710	0.007629	0.013161	-0.006104	-0.408936	0.056641	-0.586426
07938		0.163122	-0.023505	10.137945	0.002861	0.006676	-0.001717	-0.411377	0.056641	-0.592285
07939		0.176142	-0.012154	10.137954	0.000763	0.016975	-0.016785	-0.411133	0.052002	-0.592041
07940		0.199160	-0.011342	10.113537	0.015068	0.010681	-0.007629	-0.403809	0.051758	-0.592041
07941		0.170119	-0.011900	10.095228	0.006104	0.015450	0.000763	-0.413818	0.054443	-0.589111
07942		0.162575	-0.054048	10.131847	0.006104	0.011826	-0.002289	-0.411377	0.054199	-0.589111
07943		0.176261	-0.023907	10.107436	0.009918	0.014687	-0.006866	-0.406494	0.052002	-0.589111
07944		0.186523	-0.029151	10.131859	0.008202	0.022888	0.002861	-0.411377	0.056641	-0.589355
07945		0.194723	0.006523	10.131847	0.008392	0.011635	0.006104	-0.408936	0.054199	-0.589111
07946		0.180811	-0.029141	10.052511	0.012207	0.020981	-0.000191	-0.411621	0.061035	-0.592773
07947		0.163902	-0.023983	10.083023	0.008392	0.017738	-0.009155	-0.411621	0.058838	-0.589600
07948		0.199190	-0.004872	10.089120	0.007248	0.008202	-0.007629	-0.413818	0.058838	-0.589600
07949		0.194261	-0.005909	10.119649	0.003815	0.020790	-0.001526	-0.408936	0.054199	-0.589111
07950		0.174267	0.006783	10.113536	0.007629	0.012589	-0.009155	-0.411133	0.054199	-0.598145
07951		0.152271	-0.024366	10.125737	0.000763	0.006294	-0.012970	-0.406494	0.058594	-0.598633
07952		0.163086	-0.005574	10.113543	0.010490	0.020599	0.001335	-0.406250	0.052002	-0.594971
07953		0.182482	0.012475	10.064708	0.005341	0.012398	0.000763	-0.411377	0.056641	-0.592285
07954		0.187825	0.000758	10.076907	0.005531	0.002861	-0.003052	-0.406494	0.058594	-0.598633
07955		0.194687	-0.018040	10.089124	0.005341	0.012398	-0.000763	-0.406494	0.058838	-0.592529
07956		0.187362	-0.017776	10.101330	0.001144	0.012016	-0.000191	-0.413574	0.054443	-0.594971
07957		0.176568	-0.005290	10.113533	0.016022	0.008583	-0.003815	-0.413574	0.054443	-0.594971
07958		0.175587	-0.022321	10.089122	0.011063	0.011063	-0.010109	-0.408691	0.054199	-0.595215
07959		0.176338	-0.017957	10.101331	0.006866	0.013161	-0.007629	-0.411377	0.056641	-0.592285
07960		0.186910	-0.016996	10.107441	0.012779	0.019073	-0.001526	-0.404053	0.056396	-0.592529
07961		0.194955	-0.017808	10.119637	0.009918	0.007057	-0.000763	-0.408691	0.052002	-0.592041
07962		0.169532	-0.041356	10.052502	0.008202	0.012016	-0.003242	-0.408936	0.052002	-0.588867
07963		0.163976	-0.012096	10.101332	0.002289	0.016212	0.006104	-0.411377	0.054199	-0.589111
07964		0.199373	-0.011460	10.095222	0.010872	0.006485	-0.007629	-0.408936	0.056641	-0.592285
07965		0.176606	-0.017573	10.125741	0.014496	0.007820	-0.004578	-0.409180	0.058838	-0.589600
07966		0.200259	-0.004347	10.125738	0.006294	0.005913	-0.007057	-0.411377	0.056641	-0.592285
07967		0.170505	-0.011970	10.070808	0.004578	0.007820	-0.007629	-0.408691	0.054199	-0.598145
07968		0.187967	-0.005155	10.052498	0.011253	0.007629	-0.001526	-0.413818	0.056641	-0.592285
07969		0.151771	0.000351	10.076917	0.006866	0.016212	-0.006104	-0.411377	0.054443	-0.586182
07970		0.174382	-0.017159	10.076922	0.009537	0.019836	-0.004005	-0.411133	0.054199	-0.595215
07971		0.157602	0.000389	10.113542	0.007629	0.021553	-0.003815	-0.408936	0.054199	-0.586182
07972		0.173642	-0.005194	10.028097	0.002861	0.023270	-0.004005	-0.411377	0.054199	-0.589111
07973		0.188659	0.000089	10.113536	0.001526	0.010872	-0.012970	-0.406494	0.054199	-0.589111
07974		0.187044	0.024645	10.095233	0.002670	0.020218	-0.000954	-0.408936	0.056641	-0.592285
07975		0.158061	-0.011895	10.174571	0.006104	0.012398	-0.001526	-0.413818	0.052002	-0.588867
07976		0.187227	0.000709	10.125744	0.002670	0.012779	-0.001717	-0.413818	0.058838	-0.589600
07977		0.164131	0.030979	10.089121	0.009155	0.013161	0.000000	-0.416260	0.054443	-0.585938
07978		0.193165	-0.017012	10.131852	0.008774	0.016022	0.004387	-0.413818	0.052002	-0.588867
07979		0.188776	-0.005831	10.089120	0.005341	0.008583	-0.003052	-0.408936	0.056641	-0.589355
07980		0.199571	-0.011153	10.150167	0.011253	0.019455	-0.006294	-0.406250	0.052002	-0.594971
07981		0.182400	-0.005324	10.137953	0.015259	0.013924	-0.006104	-0.411377	0.056641	-0.589355
07982		0.187065	-0.003971	10.107435	0.011826	0.014114	-0.010109	-0.406494	0.054199	-0.589111
07983		0.194761	-0.018078	10.144054	0.004578	0.010872	-0.000763	-0.408936	0.054199	-0.592285
07984		0.199702	-0.011494	10.131848	0.006485	0.011253	-0.003242	-0.411377	0.052002	-0.588867
07985		0.188389	-0.011617	10.125748	0.011444	0.016212	-0.011444	-0.411621	0.058838	-0.589600
07986		0.186510	-0.004469	10.101337	0.009537	0.019455	-0.009346	-0.411133	0.052002	-0.592041
07987		0.200943	0.006570	10.113535	0.009155	0.009346	-0.003815	-0.409180	0.058838	-0.586670
07988		0.187545	-0.029559	10.101332	0.001717	0.014114	-0.013924	-0.416260	0.054443	-0.589111
07989		0.164130	-0.011780	10.107433	0.008392	0.013161	-0.003815	-0.411377	0.056641	-0.592285
07990		0.174408	0.000631	10.150168	-0.002670	0.024796	-0.004005	-0.408691	0.054199	-0.598145
07991		0.200792	-0.012254	10.064710	-0.000763	0.012398	0.008392	-0.411377	0.056641	-0.589355
07992		0.168772	-0.024419	10.131849	0.001717	0.015640	-0.004578	-0.406494	0.054199	-0.589111
07993		0.194567	-0.005359	10.156265	0.014496	0.014687	-0.008392	-0.408936	0.056641	-0.589355
07994		0.192899	0.008287	10.113542	0.014877	0.017548	-0.000954	-0.411377	0.054199	-0.592041
07995		0.176494	-0.017807	10.064707	0.009918	0.010109	-0.004578	-0.411377	0.058838	-0.592529
07996		0.181188	-0.010990	10.125748	0.005150	0.017166	-0.003242	-0.416260	0.054443	-0.592041
07997		0.206234	-0.006102	10.131862	0.000000	0.025368	-0.001526	-0.404053	0.054199	-0.592285
07998		0.192099	-0.012075	10.144055	0.002670	0.012589	0.003815	-0.408936	0.052002	-0.588867
07999		0.157907	0.000468	10.150159	0.009155	0.015450	-0.003815	-0.411621	0.061035	-0.589844
08000		0.162147	-0.010747	10.162371	0.011635	0.020218	-0.013161	-0.408936	0.056641	-0.592285
08001		0.182864	0.000502	10.113530	0.009918	0.004768	0.000000	-0.413574	0.047607	-0.588379
08002		0.182030	-0.017179	10.125744	0.003433	0.011826	-0.004005	-0.413818	0.056641	-0.589355
08003		0.182517	-0.005637	10.113536	0.009155	0.011635	-0.003815	-0.406494	0.056396	-0.589355
08004		0.187292	-0.023646	10.137952	-0.001717	0.013351	0.003624	-0.411133	0.049805	-0.588623
08005		0.175759	-0.005556	10.107444	0.010681	0.024605	-0.008392	-0.411377	0.054199	-0.592041
08006		0.185916	0.007355	10.174574	0.003815	0.014114	-0.008583	-0.411133	0.054199	-0.595215
08007		0.194684	0.006301	10.144055	0.003815	0.012398	-0.004578	-0.408936	0.056641	-0.589355
08008		0.181077	-0.011869	10.083022	-0.000954	0.015640	-0.004768	-0.411377	0.054199	-0.592041
08009		0.194649	-0.005783	10.089124	0.006104	0.013161	-0.012970	-0.411377	0.054199	-0.589111
08010		0.144492	0.019331	10.131845	0.008774	0.012970	-0.004768	-0.411377	0.052002	-0.588867
08011		0.176452	-0.005677	10.119639	0.008392	0.010872	-0.002289	-0.408691	0.054199	-0.595215
08012		0.163246	0.012843	10.107429	-0.002480	0.008011	0.002098	-0.406494	0.054199	-0.589111
08013		0.176145	0.012437	10.095230	0.004578	0.016975	0.000763	-0.408936	0.056641	-0.592285
08014		0.210923	0.012975	10.107442	0.007629	0.019455	-0.000763	-0.411377	0.058838	-0.595459
08015		0.212884	0.006727	10.064713	0.012207	0.014687	-0.008392	-0.416260	0.059082	-0.589355
08016		0.187329	0.013405	10.046393	0.001144	0.007057	0.004387	-0.411377	0.058838	-0.595459
08017		0.182284	0.006343	10.125747	0.004578	0.016212	-0.008392	-0.411377	0.058838	-0.592529
08018		0.180809	-0.023584	10.144054	0.008774	0.011444	-0.003815	-0.411377	0.058838	-0.592529
08019		0.181940	-0.011891	10.101340	0.006104	0.023079	-0.008392	-0.411621	0.061035	-0.592773
08020		0.155493	-0.016933	10.168471	0.015831	0.016022	-0.000763	-0.416016	0.054443	-0.594971
08021		0.170233	0.000503	10.119640	0.009918	0.013161	-0.001526	-0.408936	0.054199	-0.586182
08022		0.181164	0.001354	10.083019	0.007820	0.012016	-0.006294	-0.408936	0.056396	-0.595459
08023		0.200982	-0.018000	10.113535	0.006104	0.008583	-0.002289	-0.411133	0.054199	-0.595215
08024		0.163492	-0.023166	10.156259	0.013161	0.008774	-0.009155	-0.404053	0.056396	-0.598389
08025		0.182516	-0.012209	10.125743	0.000000	0.011635	0.002289	-0.404053	0.056396	-0.592529
08026		0.193321	-0.006189	10.113540	0.000000	0.014877	-0.009918	-0.406494	0.056396	-0.595459
08027		0.182631	-0.005934	10.168466	0.003052	0.009346	-0.015259	-0.406250	0.049561	-0.591797
08028		0.187668	-0.011478	10.101330	0.008774	0.011635	0.000000	-0.408936	0.054199	-0.589111
08029		0.194956	-0.005822	10.107429	0.005341	0.007057	-0.012207	-0.418701	0.056885	-0.592285
08030		0.175504	-0.017503	10.144056	0.006485	0.014496	-0.001717	-0.408936	0.056641	-0.592285
08031		0.175950	-0.023877	10.119649	0.010681	0.020790	0.003815	-0.408936	0.052002	-0.588867
08032		0.186067	-0.004735	10.144061	0.006294	0.018692	-0.000191	-0.413818	0.058838	-0.589600
08033		0.176376	-0.030326	10.095226	0.003815	0.012398	0.000763	-0.408936	0.054199	-0.589111
08034		0.169061	0.000171	10.101328	-0.002289	0.011826	-0.000954	-0.411377	0.058838	-0.592529
08035		0.188465	-0.017489	10.144058	0.016022	0.014687	-0.009918	-0.408936	0.056396	-0.595459
08036		0.162516	-0.003922	10.131848	0.010872	0.014877	-0.011635	-0.411377	0.056641	-0.589355
08037		0.170464	-0.005330	10.113533	0.015259	0.008583	-0.002289	-0.411621	0.058838	-0.589600
08038		0.163184	-0.010392	10.113538	0.005722	0.014877	-0.000191	-0.408691	0.052002	-0.594971
08039		0.188311	-0.024491	10.119645	-0.001526	0.017738	0.000000	-0.413818	0.058838	-0.592529
08040		0.205169	0.000268	10.089122	0.008965	0.010681	-0.006104	-0.418701	0.056885	-0.586182
08041		0.182284	-0.017802	10.137955	0.009918	0.016212	-0.006104	-0.411621	0.058838	-0.589600
08042		0.186776	-0.022818	10.180679	0.012207	0.014114	-0.022316	-0.408936	0.054199	-0.592285
08043		0.175985	-0.011695	10.156268	0.009918	0.020027	-0.009155	-0.411377	0.052002	-0.588867
08044		0.192858	-0.016640	10.101326	0.014114	0.007057	-0.003815	-0.411377	0.056641	-0.595215
08045		0.182592	-0.005521	10.156260	0.011444	0.010109	-0.001526	-0.408936	0.054199	-0.592285
08046		0.211665	-0.017025	10.144062	0.002670	0.017929	-0.005531	-0.413574	0.054443	-0.594971
08047		0.194685	0.000714	10.125744	0.013733	0.012398	-0.019073	-0.411377	0.052002	-0.588867
08048		0.186986	-0.004389	10.125749	0.007439	0.017548	-0.003242	-0.408691	0.052002	-0.594971
08049		0.206894	-0.017876	10.101332	0.008392	0.012398	-0.010681	-0.408936	0.054199	-0.592285
08050		0.175570	-0.016909	10.076909	0.012589	0.003815	-0.005341	-0.411133	0.049805	-0.591797
08051		0.169816	-0.018078	10.046406	0.004578	0.021553	-0.003052	-0.413818	0.054443	-0.589111
08052		0.173938	-0.005166	10.144058	0.010872	0.017166	-0.005341	-0.408936	0.056396	-0.595459
08053		0.194726	-0.017836	10.101331	0.009155	0.011635	-0.012207	-0.408691	0.054199	-0.595215
08054		0.169028	-0.023175	10.174572	0.007439	0.012398	-0.002480	-0.408936	0.054199	-0.592285
08055		0.164053	-0.036148	10.137953	0.009155	0.014687	-0.011444	-0.406494	0.056396	-0.592529
08056		0.180828	-0.011353	10.113539	-0.000191	0.014877	-0.006294	-0.411133	0.052002	-0.592041
08057		0.200982	-0.024171	10.137949	0.004578	0.008583	-0.010681	-0.408936	0.052002	-0.588867
08058		0.206207	-0.011875	10.144052	-0.000954	0.008965	0.000572	-0.411377	0.052002	-0.588867
08059		0.182362	-0.017964	10.119643	0.006866	0.014687	0.000763	-0.411377	0.056641	-0.586426
08060		0.168434	-0.011599	10.046402	-0.001335	0.018692	-0.008583	-0.409180	0.058838	-0.589600
08061		0.200827	-0.011433	10.119642	0.015259	0.011635	-0.001526	-0.408936	0.056396	-0.595459
08062		0.174893	-0.034959	10.125748	0.002670	0.017166	-0.000954	-0.406494	0.054199	-0.592285
08063		0.194723	-0.011852	10.137951	0.006866	0.011635	-0.007629	-0.408936	0.054199	-0.589111
08064		0.162687	-0.029585	10.125747	0.005150	0.017166	-0.005531	-0.406494	0.058838	-0.595703
08065		0.200599	-0.017987	10.095232	0.006104	0.016212	-0.015259	-0.408936	0.054199	-0.589111
08066		0.174531	0.006495	10.137953	-0.003433	0.014877	0.008202	-0.418457	0.052246	-0.594727
08067		0.182365	-0.024215	10.101332	0.003815	0.014687	-0.006866	-0.411377	0.052002	-0.588867
08068		0.168766	-0.023745	10.089122	0.005722	0.012016	0.001335	-0.413818	0.052002	-0.588867
08069		0.188427	-0.024375	10.125747	0.000763	0.015450	0.000000	-0.408936	0.058838	-0.592529
08070		0.186912	-0.012146	10.125745	0.001144	0.013351	-0.003815	-0.413818	0.056641	-0.595215
08071		0.182596	-0.005715	10.076914	0.007629	0.010109	-0.004578	-0.411377	0.052002	-0.588867
08072		0.175050	-0.005039	10.076920	0.005913	0.017929	-0.004005	-0.413818	0.056641	-0.589355
08073		0.182669	-0.018074	10.186776	0.004578	0.008583	-0.003815	-0.409180	0.061035	-0.592773
08074		0.169973	-0.036056	10.107424	0.003624	0.001335	-0.000954	-0.406494	0.054199	-0.592285
08075		0.164399	-0.054391	10.131845	0.010681	0.007820	0.000000	-0.413818	0.054443	-0.589111
08076		0.176309	-0.029288	10.144041	0.003433	-0.003242	-0.007629	-0.411133	0.052002	-0.594971
08077		0.194763	-0.011772	10.125744	0.008392	0.010872	-0.010681	-0.411133	0.054199	-0.595215
08078		0.193515	0.007351	10.070813	0.009537	0.012970	-0.004768	-0.413574	0.054443	-0.598145
08079		0.218982	-0.005937	10.150163	0.003052	0.014687	-0.010681	-0.408691	0.054199	-0.598145
08080		0.175015	-0.017648	10.083017	0.007439	0.009155	-0.001526	-0.411133	0.054199	-0.595215
08081		0.194763	-0.005787	10.113536	0.006104	0.010872	-0.007629	-0.411377	0.054199	-0.589111
08082		0.211960	-0.017517	10.095226	0.004196	0.010300	-0.008583	-0.406250	0.052002	-0.592041
08083		0.206741	-0.017923	10.083025	0.007629	0.015450	-0.003052	-0.408936	0.054199	-0.592285
08084		0.199466	-0.004667	10.131843	0.013161	0.006485	-0.006866	-0.411133	0.049805	-0.591797
08085		0.176528	-0.023446	10.137950	0.019073	0.009346	-0.001526	-0.406250	0.052002	-0.592041
08086		0.175525	-0.027887	10.174572	0.014114	0.010300	-0.005531	-0.406494	0.056396	-0.592529
08087		0.182440	-0.048940	10.125744	-0.002289	0.013161	-0.004578	-0.413574	0.052002	-0.591797
08088		0.217737	-0.012081	10.089126	0.008202	0.012970	0.001526	-0.411377	0.056641	-0.595215
08089		0.206705	-0.011707	10.052508	0.009918	0.016212	-0.001526	-0.409180	0.061035	-0.592773
08090		0.199478	-0.023043	10.119634	0.008202	0.004387	-0.002289	-0.408936	0.058838	-0.592529
08091		0.200826	0.000981	10.144055	0.019073	0.011635	-0.013733	-0.404297	0.058838	-0.583740
08092		0.212083	-0.016304	10.150153	0.001907	0.005913	-0.002480	-0.408691	0.054199	-0.595215
08093		0.206893	0.018578	10.107434	0.005341	0.012398	0.002289	-0.411621	0.058838	-0.586426
08094		0.205374	0.018948	10.095233	0.003052	0.017929	-0.006294	-0.408691	0.049561	-0.594727
08095		0.176607	-0.024102	10.101326	0.006104	0.007820	-0.003815	-0.406494	0.056396	-0.586426
08096		0.187900	-0.005472	10.046395	0.001144	0.008965	-0.001717	-0.408936	0.054199	-0.592285
08097		0.188162	-0.012096	10.070821	0.002289	0.020790	0.004578	-0.411377	0.054443	-0.583252
08098		0.198643	-0.017611	10.125747	0.009918	0.013351	-0.006866	-0.406494	0.061035	-0.595703
08099		0.194532	-0.036081	10.107439	0.010681	0.015450	-0.000763	-0.416260	0.056641	-0.589355
08100		0.174437	-0.011203	10.101335	-0.000954	0.018692	-0.004005	-0.408936	0.049805	-0.585693
08101		0.176337	-0.006253	10.101330	-0.003052	0.013161	-0.005341	-0.416260	0.054443	-0.592041
08102		0.193131	-0.024423	10.089128	0.007248	0.016785	-0.006866	-0.408936	0.054199	-0.592285
08103		0.188199	-0.030253	10.076924	0.005341	0.020027	0.004578	-0.411377	0.058838	-0.592529
08104		0.205239	-0.011181	10.095219	0.010681	0.003624	-0.009918	-0.406250	0.054199	-0.595215
08105		0.182362	0.000776	10.125746	0.015259	0.014687	-0.003815	-0.413574	0.054443	-0.594971
08106		0.192858	-0.016380	10.144061	0.008011	0.018311	0.002098	-0.409180	0.061035	-0.589844
08107		0.182405	-0.005904	10.058607	0.003815	0.013924	-0.008392	-0.408936	0.056641	-0.592285
08108		0.168976	0.012647	10.113534	0.001144	0.009727	-0.000954	-0.411133	0.056641	-0.598389
08109		0.194455	-0.018388	10.107438	-0.001526	0.016975	0.000000	-0.409180	0.058838	-0.589600
08110		0.168371	-0.012065	10.131850	0.006485	0.016022	-0.005341	-0.411377	0.058838	-0.595459
08111		0.164130	-0.011856	10.107433	0.006866	0.013161	-0.005341	-0.408936	0.054199	-0.592285
08112		0.180885	-0.035156	10.089130	0.015831	0.017548	0.000763	-0.408936	0.054199	-0.589111
08113		0.188811	-0.024023	10.186776	0.007629	0.007820	-0.002289	-0.406738	0.058838	-0.589600
08114		0.188013	-0.041542	10.131844	0.008202	0.006676	-0.004005	-0.416016	0.052002	-0.597900
08115		0.188930	0.006415	10.095220	0.006104	0.005531	-0.003815	-0.408936	0.054199	-0.586182
08116		0.138885	-0.010908	10.095228	0.014305	0.018311	-0.006294	-0.416260	0.059082	-0.592529
08117		0.176179	-0.005089	10.156265	0.019836	0.016212	-0.008392	-0.406494	0.058838	-0.592529
08118		0.181313	-0.021502	10.028081	0.019836	0.003433	-0.010681	-0.411377	0.054199	-0.592041
08119		0.188586	-0.011386	10.064710	0.016022	0.012398	-0.015259	-0.408691	0.052002	-0.592041
08120		0.186772	-0.035045	10.144063	-0.000954	0.021744	-0.003242	-0.408936	0.054199	-0.589111
08121		0.188192	-0.030173	10.150166	0.006866	0.020027	0.004578	-0.413574	0.052002	-0.594971
08122		0.180594	-0.011027	10.095223	0.010109	0.008202	-0.002289	-0.408936	0.056641	-0.589355
08123		0.176332	0.000544	10.186779	0.010681	0.013161	0.000000	-0.409180	0.058838	-0.589600
08124		0.162903	-0.010562	10.076914	0.011635	0.011063	-0.011444	-0.411377	0.056641	-0.589355
08125		0.182325	0.006499	10.101332	0.007629	0.015450	-0.011444	-0.408936	0.058838	-0.598633
08126		0.205262	0.019095	10.113538	0.000381	0.012589	-0.001717	-0.411377	0.056641	-0.595215
08127		0.188813	0.000469	10.137947	0.009155	0.007820	-0.005341	-0.411377	0.056641	-0.592285
08128		0.163725	-0.028951	10.113531	0.013924	0.004196	-0.004578	-0.413818	0.054443	-0.592041
08129		0.182215	-0.018184	10.052507	0.002289	0.017738	-0.012207	-0.411377	0.052002	-0.585938
08130		0.174337	0.006512	10.162368	0.004196	0.016785	-0.004768	-0.411377	0.056641	-0.595215
08131		0.169800	-0.018126	10.186786	0.003815	0.021553	0.011444	-0.406494	0.056396	-0.592529
08132		0.167837	0.006791	10.107436	0.007820	0.017166	-0.006866	-0.413818	0.052002	-0.588867
08133		0.175986	0.000705	10.144061	0.013733	0.020027	-0.009918	-0.411133	0.054199	-0.595215
08134		0.180218	-0.028461	10.113542	0.014114	0.015640	-0.008392	-0.411377	0.056641	-0.586426
08135		0.200712	-0.011967	10.113540	0.004578	0.013924	-0.008392	-0.406494	0.058838	-0.592529
08136		0.187041	0.031593	10.168469	0.013542	0.014496	-0.006104	-0.411133	0.054199	-0.598145
08137		0.194685	0.000814	10.125744	0.016022	0.012398	-0.003052	-0.411133	0.056641	-0.598389
08138		0.175145	0.002169	10.131845	0.010681	0.010300	-0.007057	-0.411133	0.054199	-0.601074
08139		0.194408	0.006223	10.192888	0.002289	0.017738	-0.003052	-0.411377	0.056641	-0.586426
08140		0.180760	-0.005790	10.168467	0.002289	0.010490	-0.007629	-0.411133	0.052002	-0.594971
08141		0.194376	-0.011629	10.119648	0.011444	0.018501	0.000763	-0.413818	0.056641	-0.592285
08142		0.193116	0.007925	10.101323	0.015259	0.005722	-0.002289	-0.411377	0.054199	-0.589111
08143		0.176567	-0.011812	10.150155	0.007629	0.008583	-0.008392	-0.406494	0.056396	-0.589355
08144		0.168978	-0.041851	10.131854	0.002098	0.020981	-0.005531	-0.411133	0.049805	-0.588623
08145		0.170309	-0.011703	10.131846	0.009918	0.011635	-0.001526	-0.411133	0.054199	-0.598145
08146		0.187174	-0.017274	10.180679	0.001526	0.015640	-0.005531	-0.403809	0.054199	-0.595215
08147		0.182670	-0.017928	10.137948	0.007629	0.008583	0.004578	-0.406250	0.054199	-0.595215
08148		0.200096	-0.004941	10.107429	0.007820	0.007248	-0.004578	-0.411377	0.058838	-0.598633
08149		0.194646	-0.017768	10.125746	0.010681	0.013161	-0.001526	-0.408936	0.054199	-0.589111
08150		0.174838	-0.023238	10.125747	0.002289	0.016403	-0.012398	-0.408936	0.058838	-0.595459
08151		0.177079	-0.018227	10.089110	0.001717	-0.001526	0.003815	-0.406494	0.054199	-0.589111
08152		0.176683	-0.005746	10.101326	0.005341	0.008202	0.008202	-0.408936	0.056641	-0.589355
08153		0.169694	-0.036231	10.113547	0.007629	0.023842	-0.004578	-0.411377	0.052002	-0.588867
08154		0.192215	-0.004389	10.131848	0.018692	0.012207	-0.004578	-0.408936	0.058838	-0.595459
08155		0.175912	-0.011396	10.113545	0.016022	0.021553	-0.000763	-0.411621	0.058838	-0.589600
08156		0.192442	-0.016206	10.156264	0.009346	0.013351	-0.009346	-0.413818	0.054443	-0.586182
08157		0.176335	-0.024142	10.144055	0.005341	0.013161	-0.001526	-0.408936	0.052002	-0.585938
08158		0.181056	-0.029727	10.131850	0.006104	0.014114	-0.005531	-0.408691	0.054199	-0.595215
08159		0.206929	-0.023828	10.162367	0.011444	0.011635	-0.004578	-0.408936	0.058838	-0.592529
08160		0.193514	-0.010725	10.125743	0.006294	0.011063	-0.020027	-0.406494	0.054199	-0.592285
08161		0.188542	-0.005439	10.131849	0.012970	0.013161	-0.007629	-0.408936	0.054199	-0.589111
08162		0.168751	-0.028714	10.150162	0.011063	0.016022	-0.003242	-0.411133	0.047363	-0.591553
08163		0.200942	0.018587	10.125741	0.005341	0.009346	-0.006104	-0.411133	0.049805	-0.588623
08164		0.199901	-0.011426	10.144054	0.005913	0.011063	-0.004005	-0.406250	0.054199	-0.595215
08165		0.164398	-0.017381	10.156258	0.018311	0.007820	0.000000	-0.413818	0.056641	-0.592285
08166		0.163126	-0.022390	10.119642	0.004196	0.016022	0.000572	-0.411377	0.058838	-0.595459
08167		0.188621	-0.023753	10.113538	0.012970	0.011635	-0.005341	-0.413574	0.054443	-0.594971
08168		0.174936	-0.004368	10.070815	0.009727	0.016403	-0.007057	-0.408936	0.054199	-0.592285
08169		0.188196	0.000776	10.113544	0.015259	0.020027	-0.004578	-0.401611	0.056396	-0.589600
08170		0.198567	0.002051	10.095230	0.010300	0.014877	-0.004768	-0.406494	0.054199	-0.589111
08171		0.194377	-0.017958	10.119648	0.006866	0.018501	-0.005341	-0.409180	0.058838	-0.589600
08172		0.180473	-0.029560	10.137953	0.005722	0.014305	0.000572	-0.406494	0.054199	-0.592285
08173		0.188194	-0.024213	10.150166	0.003815	0.020027	-0.007629	-0.411133	0.052002	-0.592041
08174		0.191906	-0.041701	10.101346	0.012589	0.025940	-0.006866	-0.413818	0.056641	-0.589355
08175		0.213148	-0.011620	10.168468	0.011444	0.009346	-0.004578	-0.408936	0.056396	-0.595459
08176		0.181611	0.020412	10.119637	0.018883	0.010681	-0.001717	-0.411377	0.058838	-0.592529
08177		0.170230	-0.030207	10.156262	0.006104	0.013161	-0.000763	-0.406738	0.058838	-0.586670
08178		0.169069	-0.017279	10.174570	0.008965	0.009727	-0.003815	-0.411621	0.058838	-0.586426
08179		0.176491	-0.030016	10.113536	0.009918	0.010109	0.000000	-0.408936	0.058838	-0.595459
08180		0.193898	-0.035175	10.089120	0.009727	0.007248	-0.001526	-0.406494	0.054199	-0.589111
08181		0.176529	-0.012086	10.119637	0.002289	0.009346	-0.005341	-0.411377	0.054199	-0.592041
08182		0.187676	-0.017522	10.119641	0.011826	0.011444	0.000763	-0.408691	0.054199	-0.598145
08183		0.182556	-0.036101	10.168469	0.009918	0.010872	-0.016785	-0.416504	0.061279	-0.586670
08184		0.193236	-0.004535	10.186786	0.012016	0.018311	-0.003242	-0.406494	0.056396	-0.595459
08185		0.176760	0.000051	10.150151	0.000763	0.004768	-0.013733	-0.408936	0.054199	-0.589111
08186		0.169949	-0.024148	10.119637	0.005150	0.009346	-0.006294	-0.408691	0.054199	-0.598145
08187		0.170270	-0.048289	10.131849	0.010681	0.012398	0.002289	-0.408936	0.058838	-0.595459
08188		0.175523	-0.041360	10.131840	0.006104	0.002861	-0.006866	-0.406494	0.056396	-0.595459
08189		0.176259	-0.017911	10.131850	0.007629	0.014687	-0.015259	-0.411133	0.056641	-0.598389
08190		0.217173	-0.011463	10.168479	-0.000381	0.020218	-0.000191	-0.413818	0.056641	-0.595215
08191		0.176411	-0.018196	10.162364	0.002289	0.011635	0.002289	-0.406494	0.056396	-0.586426
08192		0.199311	-0.035911	10.101337	0.010109	0.017166	-0.008392	-0.411133	0.049805	-0.588623
08193		0.170271	-0.042487	10.144055	0.004578	0.012398	-0.006866	-0.411377	0.056641	-0.589355
08194		0.168869	-0.035946	10.107436	0.005722	0.015640	-0.004768	-0.408936	0.054199	-0.592285
08195		0.188352	-0.018079	10.095231	0.004578	0.016975	-0.000763	-0.411377	0.058838	-0.592529
08196		0.168200	0.000644	10.095231	0.005150	0.019455	-0.003242	-0.413818	0.054443	-0.589111
08197		0.182326	-0.029931	10.107438	0.011444	0.015450	-0.009155	-0.413818	0.054443	-0.589111
08198		0.162209	-0.022822	10.119645	0.008774	0.019073	-0.004005	-0.416016	0.052246	-0.591797
08199		0.200473	0.006579	10.186786	0.009155	0.018501	-0.009155	-0.413818	0.056641	-0.595215
08200		0.174091	0.001509	10.113543	0.012779	0.019836	-0.005341	-0.406494	0.056396	-0.595459
08201		0.194762	-0.024061	10.131847	0.006866	0.010872	-0.005341	-0.404053	0.054199	-0.592285
08202		0.193742	0.001302	10.156258	0.012589	0.008392	0.005341	-0.411621	0.061035	-0.592773
08203		0.200942	-0.011853	10.156260	0.006866	0.009346	-0.005341	-0.411621	0.058838	-0.589600
08204		0.175258	0.001091	10.107436	0.008202	0.015640	-0.010109	-0.413574	0.052002	-0.591797
08205		0.200711	-0.017647	10.131851	0.012970	0.013924	-0.006104	-0.404297	0.058594	-0.589600
08206		0.181194	-0.004889	10.089120	-0.000763	0.009537	-0.014687	-0.408691	0.054199	-0.595215
08207		0.175757	-0.024175	10.131858	0.004578	0.024605	-0.008392	-0.408936	0.056641	-0.592285
08208		0.174282	0.018927	10.046390	0.004578	0.004768	-0.005341	-0.401855	0.056396	-0.586426
08209		0.188581	0.000536	10.125744	0.010681	0.012398	0.004578	-0.408936	0.056641	-0.589355
08210		0.181096	-0.010803	10.101331	0.006866	0.013351	-0.008583	-0.416016	0.052246	-0.591797
08211		0.188427	0.012584	10.125747	0.007629	0.015450	0.009918	-0.403809	0.054199	-0.595215
08212		0.175004	0.007081	10.119635	0.006104	0.007439	-0.000954	-0.406738	0.058838	-0.589600
08213		0.176374	-0.012315	10.137950	-0.002289	0.012398	-0.009155	-0.413818	0.054443	-0.592041
08214		0.181134	-0.012090	10.089125	0.008011	0.014496	0.000763	-0.413818	0.054443	-0.586182
08215		0.176408	-0.017883	10.211193	0.008392	0.011635	0.000763	-0.411133	0.049805	-0.588623
08216		0.187641	-0.017574	10.137945	-0.000572	0.006485	-0.003242	-0.408691	0.054199	-0.601074
08217		0.163861	-0.030280	10.107438	0.004578	0.018501	-0.007629	-0.408691	0.054199	-0.595215
08218		0.174010	0.000679	10.150165	0.005722	0.021362	-0.007820	-0.411377	0.054199	-0.589111
08219		0.188080	0.012714	10.113546	0.009918	0.022316	-0.006104	-0.411377	0.054443	-0.586182
08220		0.174337	-0.035351	10.137947	0.006104	0.007439	-0.007629	-0.408936	0.058838	-0.595459
08221		0.164362	-0.030051	10.101327	0.009155	0.008583	-0.005341	-0.408691	0.049561	-0.594727
08222		0.181323	0.001193	10.107437	0.006485	0.016403	-0.007820	-0.413818	0.056641	-0.592285
08223		0.200711	0.006498	10.119643	0.007629	0.013924	-0.008392	-0.408936	0.054199	-0.589111
08224		0.204939	0.013072	10.052514	0.002098	0.022888	0.003624	-0.406494	0.056396	-0.592529
08225		0.170075	-0.005797	10.162368	0.006104	0.016212	0.004578	-0.411133	0.054199	-0.595215
08226		0.181013	-0.005131	10.101325	0.007820	0.007439	-0.006104	-0.404053	0.056396	-0.598389
08227		0.176060	0.018357	10.174577	0.000763	0.018501	-0.009155	-0.411377	0.054199	-0.592041
08228		0.180698	0.006592	10.089120	0.009727	0.009918	0.002289	-0.413574	0.047607	-0.591553
08229		0.194650	0.000620	10.064710	0.012207	0.013161	-0.006104	-0.408936	0.056641	-0.592285
08230		0.187463	-0.017107	10.040291	0.000954	0.008202	-0.012398	-0.409180	0.058838	-0.589600
08231		0.188627	-0.030466	10.040294	0.000763	0.011635	-0.014496	-0.408936	0.058838	-0.595459
08232		0.157094	-0.005850	10.125738	0.004959	0.007057	-0.003242	-0.408691	0.052002	-0.594971
08233		0.170272	-0.054737	10.113537	0.003815	0.012398	-0.001526	-0.411621	0.056641	-0.583252
08234		0.181394	-0.048471	10.156257	-0.000572	0.007439	-0.004768	-0.406494	0.054199	-0.592285
08235		0.157758	-0.005373	10.089126	0.014496	0.018501	0.000763	-0.411377	0.054199	-0.589111
08236		0.186453	0.001995	10.107437	0.011253	0.016785	0.004387	-0.411377	0.056641	-0.589355
08237		0.176569	-0.023907	10.113534	0.009918	0.008583	-0.006104	-0.408691	0.054199	-0.598145
08238		0.169434	0.007133	10.076914	0.001335	0.012016	-0.010109	-0.411377	0.058838	-0.592529
08239		0.182750	-0.030166	10.107429	0.006866	0.007057	-0.005341	-0.416260	0.054443	-0.585938
08240		0.193916	-0.017063	10.076918	0.011253	0.012589	-0.013161	-0.411377	0.054199	-0.592041
08241		0.188429	-0.006021	10.095229	0.001526	0.015450	-0.005341	-0.413818	0.056641	-0.586182
08242		0.186221	-0.005519	10.095240	0.009537	0.027084	-0.008392	-0.408936	0.054199	-0.586182
08243		0.163517	0.012587	10.076925	0.007629	0.025368	0.005341	-0.413818	0.056641	-0.589355
08244		0.173559	0.006934	10.119644	0.003242	0.017166	0.001335	-0.411377	0.056641	-0.592285
08245		0.158100	0.006882	10.162362	0.015259	0.011635	-0.003815	-0.413818	0.056641	-0.595215
08246		0.199408	-0.004486	10.070816	0.001907	0.015259	0.004387	-0.408936	0.052002	-0.588867
08247		0.225280	0.012747	10.113537	0.010681	0.010872	0.000000	-0.414062	0.058838	-0.583496
08248		0.187387	0.001276	10.144055	0.004387	0.013351	-0.004768	-0.406494	0.054199	-0.589111
08249		0.157716	-0.005678	10.125748	0.008392	0.019264	-0.000763	-0.406494	0.054199	-0.589111
08250		0.204805	-0.005100	10.095229	0.004578	0.014114	-0.009346	-0.406494	0.054199	-0.592285
08251		0.206740	-0.011615	10.107439	0.011444	0.015450	-0.012970	-0.408936	0.056396	-0.595459
08252		0.174782	-0.022728	10.150158	0.010490	0.011826	-0.010109	-0.406494	0.056396	-0.592529
08253		0.170578	-0.017572	10.174567	0.014496	0.006294	-0.000763	-0.411377	0.054199	-0.589111
08254		0.169516	-0.016288	10.150159	0.011444	0.014114	-0.013161	-0.408936	0.054199	-0.592285
08255		0.200633	-0.018232	10.137955	0.001526	0.015450	-0.000763	-0.406494	0.056396	-0.595459
08256		0.174860	-0.005377	10.113535	0.012398	0.010300	-0.005341	-0.411377	0.056641	-0.595215
08257		0.207162	-0.005667	10.150154	0.008392	0.007057	-0.010681	-0.413818	0.054443	-0.586182
08258		0.187541	0.000804	10.095232	-0.001144	0.017929	-0.004005	-0.406494	0.056396	-0.589355
08259		0.176492	-0.017611	10.107432	0.013733	0.010109	-0.006104	-0.409180	0.058838	-0.583496
08260		0.175655	0.001589	10.089116	0.004959	0.005913	-0.004005	-0.408936	0.056641	-0.592285
08261		0.188349	0.000237	10.137955	0.004578	0.016975	-0.005341	-0.408936	0.054199	-0.589111
08262		0.198597	-0.005465	10.137961	0.004959	0.021744	-0.005531	-0.409180	0.058838	-0.589600
08263		0.182323	-0.023754	10.131852	0.012970	0.015450	-0.003052	-0.408936	0.058838	-0.592529
08264		0.175158	-0.004589	10.150150	0.005341	0.004387	-0.004768	-0.414062	0.061279	-0.589600
08265		0.207319	-0.017760	10.083013	0.010681	0.004005	-0.011444	-0.411377	0.056641	-0.589355
08266		0.188329	-0.029400	10.107430	0.001144	0.008011	-0.010872	-0.411133	0.054199	-0.595215
08267		0.212920	0.005955	10.089126	-0.003052	0.013924	-0.005341	-0.409180	0.058838	-0.589600
08268		0.199290	-0.012243	10.131850	0.006676	0.013733	-0.006866	-0.406738	0.058838	-0.589600
08269		0.194839	-0.005984	10.131845	0.002289	0.009346	-0.003815	-0.411377	0.056641	-0.592285
08270		0.193496	-0.036495	10.083024	-0.001526	0.017166	-0.013161	-0.416260	0.052246	-0.585938
08271		0.175990	-0.023985	10.107441	0.008392	0.020027	-0.005341	-0.411377	0.054199	-0.589111
08272		0.211245	-0.010862	10.119635	0.011444	0.005531	-0.003052	-0.411377	0.056641	-0.589355
08273		0.230997	-0.012355	10.131857	-0.003052	0.018501	-0.005341	-0.411377	0.058838	-0.592529
08274		0.198641	-0.006362	10.113543	0.002289	0.017166	-0.006866	-0.413818	0.058838	-0.601562
08275		0.207317	0.006175	10.107426	0.001526	0.004005	0.005341	-0.408936	0.054199	-0.586182
08276		0.182177	-0.012089	10.089120	0.000381	0.008965	-0.003242	-0.406494	0.056396	-0.598389
08277		0.182558	-0.018267	10.076914	0.000763	0.010872	-0.006104	-0.411377	0.054199	-0.592041
08278		0.181208	-0.005685	10.131850	0.008011	0.014877	-0.013733	-0.411377	0.056641	-0.592285
08279		0.194646	-0.011662	10.125746	0.010681	0.013161	-0.004578	-0.411377	0.056641	-0.592285
08280		0.175012	-0.022759	10.101331	0.012016	0.012970	0.001335	-0.411377	0.056641	-0.592285
08281		0.182672	-0.012049	10.107430	0.003052	0.008583	-0.004578	-0.409180	0.058838	-0.586670
08282		0.194148	-0.016981	10.064705	0.020599	0.006104	-0.006866	-0.411133	0.049805	-0.591797
08283		0.207046	-0.024299	10.125742	0.002289	0.009346	0.000763	-0.411377	0.054199	-0.589111
08284		0.168842	-0.035716	10.156271	0.013924	0.021744	-0.008392	-0.406494	0.056396	-0.595459
08285		0.176457	-0.011970	10.040293	0.004578	0.010872	-0.008392	-0.411377	0.056641	-0.589355
08286		0.187103	0.006852	10.076922	0.007248	0.019073	-0.002480	-0.406738	0.058838	-0.586670
08287		0.176256	0.012746	10.162366	0.010681	0.014687	0.004578	-0.411377	0.056641	-0.592285
08288		0.199218	-0.022698	10.070816	0.013161	0.013351	-0.004578	-0.408691	0.052002	-0.594971
08289		0.188277	0.006297	10.070818	0.003815	0.018501	-0.001526	-0.409180	0.058838	-0.589600
08290		0.168577	0.000475	10.095222	0.001717	0.008202	-0.008583	-0.418701	0.059082	-0.589355
08291		0.194726	-0.012356	10.089122	-0.003052	0.011635	-0.005341	-0.406494	0.056396	-0.592529
08292		0.187312	-0.030562	10.125746	0.006676	0.012970	0.001526	-0.408936	0.054199	-0.586182
08293		0.157763	-0.042331	10.064714	0.007629	0.018501	-0.012207	-0.411621	0.061035	-0.589844
08294		0.186590	-0.017366	10.095228	0.003433	0.014114	-0.009346	-0.406494	0.054199	-0.586182
08295		0.176953	0.006034	10.144044	-0.001526	0.000954	-0.008392	-0.411377	0.054443	-0.586182
08296		0.170160	-0.012374	10.076820	0.000381	0.012779	-0.005531	-0.408691	0.047363	-0.594482
08297		0.164130	-0.030430	10.137951	0.001526	0.013161	-0.012207	-0.406494	0.056396	-0.586426
08298		0.174955	-0.018038	10.089124	0.003433	0.014114	-0.004005	-0.406250	0.052002	-0.592041
08299		0.194688	-0.005563	10.083020	0.010681	0.012398	-0.002289	-0.406494	0.054199	-0.592285
08300		0.187730	0.007635	10.083010	0.009537	0.002861	-0.001526	-0.414062	0.061279	-0.592773
08301		0.182363	-0.018270	10.113539	0.000763	0.014687	-0.002289	-0.408936	0.054199	-0.589111
08302		0.211179	0.000145	10.137959	0.002861	0.018120	-0.000191	-0.416260	0.056641	-0.592285
08303		0.188507	-0.023989	10.083022	0.008392	0.013924	-0.002289	-0.413818	0.056641	-0.592285
08304		0.205298	-0.011184	10.119645	0.005150	0.015640	0.000572	-0.411377	0.052002	-0.588867
08305		0.182480	-0.012083	10.101330	0.002289	0.012398	-0.009155	-0.411377	0.054199	-0.589111
08306		0.162901	-0.024083	10.113535	0.002670	0.011063	-0.007057	-0.411377	0.056641	-0.586426
08307		0.182636	-0.005673	10.052499	0.008392	0.009346	-0.009155	-0.408936	0.052002	-0.588867
08308		0.175352	-0.035464	10.137953	0.005913	0.013733	0.001335	-0.411377	0.056641	-0.595215
08309		0.194761	-0.005519	10.144054	0.011444	0.010872	-0.004578	-0.413818	0.056641	-0.595215
08310		0.181281	0.019443	10.174573	-0.000381	0.013351	-0.008583	-0.408691	0.054199	-0.595215
08311		0.188424	0.006540	10.162368	0.008392	0.015450	-0.010681	-0.409180	0.061035	-0.592773
08312		0.174451	-0.035106	10.168475	0.012779	0.018311	-0.007629	-0.409180	0.058838	-0.589600
08313		0.170039	0.000005	10.125747	0.000000	0.016975	-0.006104	-0.416504	0.061279	-0.589600
08314		0.162672	0.000446	10.131842	0.008774	0.008011	-0.002289	-0.408936	0.052002	-0.588867
08315		0.182441	0.006339	10.095227	0.004578	0.013161	-0.004578	-0.413818	0.056641	-0.595215
08316		0.187651	0.012986	10.113529	0.007629	0.004387	-0.012970	-0.404053	0.056396	-0.598389
08317		0.194298	0.000164	10.131855	0.003052	0.020027	-0.009918	-0.408936	0.058838	-0.592529
08318		0.192135	-0.011403	10.101340	0.010300	0.021362	0.002289	-0.408936	0.056396	-0.595459
08319		0.194838	-0.005591	10.162363	0.009918	0.009346	-0.009155	-0.409180	0.058838	-0.589600
08320		0.175866	-0.017101	10.076908	0.004959	0.003624	-0.007057	-0.408691	0.047363	-0.591553
08321		0.194879	0.000540	10.101327	0.010681	0.008583	-0.000763	-0.413818	0.056641	-0.586182
08322		0.194066	-0.016897	10.156258	0.007248	0.007629	0.003624	-0.416260	0.054443	-0.589111
08323		0.189047	-0.024440	10.101321	-0.000763	0.003242	-0.012970	-0.413818	0.054443	-0.589111
08324		0.187942	0.000247	10.089033	0.006676	0.017548	-0.006104	-0.413818	0.058838	-0.592529
08325		0.201059	-0.012005	10.131843	0.003815	0.007057	-0.008392	-0.411377	0.056641	-0.589355
08326		0.181669	-0.011649	10.089124	0.003433	0.013351	-0.004005	-0.413818	0.054443	-0.592041
08327		0.219447	0.005948	10.113532	-0.003052	0.005531	0.001526	-0.413818	0.058838	-0.592529
08328		0.176025	-0.005960	10.107334	0.010490	0.008011	0.006104	-0.408936	0.056641	-0.592285
08329		0.182595	-0.042447	10.125743	0.005341	0.010109	-0.007629	-0.413818	0.052002	-0.588867
08330		0.205976	-0.011581	10.162364	0.002861	0.009727	-0.004005	-0.408936	0.056641	-0.586426
08331		0.182630	0.006427	10.174569	0.006104	0.009346	-0.013733	-0.411377	0.056641	-0.589355
08332		0.175672	0.000785	10.113532	0.004196	0.007439	-0.000954	-0.408691	0.054199	-0.595215
08333		0.170305	-0.011614	10.211192	0.011444	0.011635	-0.009918	-0.416260	0.058838	-0.598389
08334		0.217888	0.013605	10.101331	0.004578	0.011826	-0.020790	-0.406738	0.058838	-0.589600
08335		0.188735	0.012825	10.137948	0.012207	0.009346	0.000763	-0.413818	0.054443	-0.592041
08336		0.182249	-0.010386	10.137938	0.013161	-0.001907	-0.010681	-0.411377	0.058838	-0.598633
08337		0.170696	0.012978	10.119631	0.015259	0.004005	0.000763	-0.409180	0.058838	-0.589600
08338		0.181797	-0.010331	10.144058	0.006866	0.016403	-0.001717	-0.409180	0.058838	-0.589600
08339		0.188623	0.000312	10.070812	0.006104	0.011635	-0.004578	-0.416260	0.054443	-0.592041
08340		0.198999	-0.023461	10.119653	0.007439	0.023270	-0.004768	-0.408936	0.056641	-0.592285
08341		0.164399	-0.018038	10.137946	0.005341	0.007820	-0.002289	-0.411377	0.056641	-0.589355
08342		0.182102	0.007038	10.156252	0.008965	0.002861	-0.002289	-0.411377	0.056641	-0.592285
08343		0.212612	-0.012393	10.101339	-0.003815	0.020027	-0.006104	-0.411377	0.056641	-0.589355
08344		0.198618	-0.012283	10.192885	0.005913	0.013733	-0.004578	-0.406250	0.052002	-0.592041
08345		0.176414	-0.024367	10.131846	0.000763	0.011635	-0.009155	-0.408936	0.054199	-0.586182
08346		0.157018	-0.005698	10.119636	0.007820	0.008583	-0.012970	-0.413574	0.054443	-0.594971
08347		0.170812	-0.005476	10.137941	0.012207	0.001717	-0.009918	-0.416260	0.056641	-0.589355
08348		0.182430	0.002052	10.168370	0.015831	0.009537	-0.008583	-0.413818	0.058838	-0.598389
08349		0.212533	0.006227	10.113548	0.002289	0.021553	-0.006866	-0.411133	0.049805	-0.588623
08350		0.180003	0.000275	10.144059	0.001526	0.017929	-0.007820	-0.411377	0.056641	-0.592285
08351		0.164010	0.013030	10.150158	0.016022	0.015450	-0.011444	-0.411377	0.054199	-0.589111
08352		0.180773	-0.004327	10.083021	0.002861	0.014114	-0.011635	-0.408691	0.052002	-0.594971
08353		0.170308	-0.000152	10.156260	-0.003052	0.011635	-0.003815	-0.408691	0.052002	-0.592041
08354		0.199080	0.005771	10.083030	0.000763	0.021744	-0.010681	-0.408936	0.056641	-0.592285
08355		0.200630	-0.011889	10.186783	0.006104	0.015450	-0.006866	-0.406494	0.056396	-0.592529
08356		0.205336	-0.017326	10.186780	0.007820	0.011063	-0.013924	-0.411133	0.049805	-0.591797
08357		0.188386	0.012680	10.144058	0.009155	0.016212	-0.009155	-0.404053	0.054199	-0.589355
08358		0.199159	-0.016813	10.119641	0.012589	0.010681	-0.002289	-0.406250	0.052002	-0.594971
08359		0.182095	-0.017997	10.095234	0.006104	0.020027	-0.006104	-0.408936	0.056641	-0.592285
08360		0.186572	-0.017133	10.095226	0.012016	0.010681	0.001526	-0.408936	0.056641	-0.589355
08361		0.188694	-0.006040	10.180674	0.001526	0.010109	0.014496	-0.411621	0.058838	-0.589600
08362		0.187092	0.012425	10.174580	0.002289	0.020981	-0.007057	-0.408936	0.056641	-0.586426
08363		0.182594	-0.012355	10.119638	-0.003052	0.010109	-0.006866	-0.413818	0.056641	-0.592285
08364		0.169001	-0.005995	10.113540	0.009727	0.016785	0.002289	-0.408936	0.056641	-0.589355
08365		0.176606	-0.017609	10.144051	0.013733	0.007820	-0.006104	-0.411377	0.058838	-0.592529
08366		0.212244	-0.010811	10.119640	0.001144	0.010300	-0.002480	-0.406250	0.052002	-0.597900
08367		0.182634	0.006302	10.089120	0.003815	0.009346	-0.006866	-0.404053	0.058594	-0.592773
08368		0.188072	-0.005474	10.107425	0.004959	0.003624	0.003052	-0.408936	0.054199	-0.589111
08369		0.194956	0.006562	10.107428	0.009155	0.007057	0.004578	-0.406494	0.056396	-0.592529
08370		0.212184	0.013536	10.113539	0.009155	0.013351	-0.007057	-0.408936	0.058838	-0.595459
08371		0.176605	-0.005985	10.156257	0.002289	0.007820	-0.002289	-0.411377	0.058838	-0.592529
08372		0.169208	-0.041964	10.144059	0.011253	0.016403	0.001526	-0.408936	0.056641	-0.586426
08373		0.188658	0.012605	10.113535	0.007629	0.010872	-0.012970	-0.409180	0.058838	-0.589600
08374		0.193549	-0.010720	10.144056	0.014114	0.012207	-0.008392	-0.408936	0.056641	-0.592285
08375		0.188461	-0.005819	10.186782	0.005341	0.014687	-0.013733	-0.408936	0.058838	-0.595459
08376		0.193515	-0.005293	10.162359	0.006676	0.005341	0.005341	-0.408936	0.058838	-0.592529
08377		0.163974	0.000079	10.131849	0.001526	0.016212	-0.002289	-0.409180	0.061035	-0.592773
08378		0.174792	0.012704	10.131844	0.007820	0.009727	-0.006104	-0.404053	0.051758	-0.589111
08379		0.170580	0.012751	10.125737	0.010681	0.006294	-0.003815	-0.411377	0.054199	-0.589111
08380		0.194010	0.001198	10.089124	0.002861	0.012589	-0.004768	-0.406250	0.052002	-0.594971
08381		0.212842	0.012556	10.107438	0.006866	0.015450	-0.002289	-0.406250	0.052002	-0.592041
08382		0.193132	0.013195	10.089122	0.006104	0.011063	-0.013161	-0.411377	0.052002	-0.588867
08383		0.157720	0.006337	10.083023	0.004578	0.019264	-0.003052	-0.408936	0.054199	-0.592285
08384		0.174076	0.043092	10.095231	-0.000191	0.018311	0.005150	-0.411621	0.058838	-0.589600
08385		0.164131	-0.006376	10.095226	-0.005341	0.013161	0.003815	-0.408936	0.056396	-0.595459
08386		0.174605	-0.018361	10.125752	0.010300	0.020981	-0.000763	-0.411377	0.054199	-0.592041
08387		0.176216	-0.012014	10.174574	0.003815	0.015450	0.000763	-0.408936	0.056641	-0.589355
08388		0.180992	-0.005317	10.119638	0.008011	0.009727	0.000763	-0.411377	0.054199	-0.589111
08389		0.176183	0.006493	10.095229	0.007629	0.016212	-0.005341	-0.406494	0.054199	-0.586182
08390		0.192802	0.031501	10.131850	0.004196	0.015640	-0.007820	-0.409180	0.058838	-0.589600
08391		0.182052	-0.005947	10.131855	0.003052	0.020790	-0.002289	-0.416504	0.061279	-0.592773
08392		0.186773	-0.017789	10.144050	0.004578	0.006676	-0.003052	-0.409180	0.058838	-0.589600
08393		0.176568	-0.018082	10.101326	0.004578	0.008583	0.003052	-0.411377	0.058838	-0.592529
08394		0.187620	-0.017656	10.095227	0.005341	0.012589	-0.003815	-0.411377	0.058838	-0.592529
08395		0.170659	-0.017772	10.052495	0.010681	0.004768	-0.001526	-0.411377	0.056641	-0.592285
08396		0.157343	-0.004397	10.162367	0.012779	0.017166	-0.010872	-0.404053	0.054199	-0.586182
08397		0.158065	-0.012086	10.113535	0.002289	0.012398	-0.006104	-0.406250	0.052002	-0.592041
08398		0.168560	-0.017829	10.107441	0.005722	0.021744	-0.002480	-0.408936	0.056641	-0.589355
08399		0.194954	0.006570	10.150153	0.009155	0.007057	-0.002289	-0.413818	0.054443	-0.592041
08400		0.169341	0.019669	10.156167	0.009727	0.015640	-0.007057	-0.413818	0.054443	-0.592041
08401		0.201215	-0.011860	10.064702	0.006866	0.004005	-0.001526	-0.408691	0.054199	-0.595215
08402		0.188162	0.006920	10.131751	0.002861	0.011253	-0.004005	-0.411377	0.054199	-0.592041
08403		0.188777	-0.017908	10.107431	0.007629	0.008583	-0.017548	-0.413818	0.054443	-0.592041
08404		0.193901	-0.005316	10.211190	0.000381	0.008965	-0.004768	-0.413818	0.054443	-0.592041
08405		0.170079	-0.035961	10.119645	0.012970	0.016212	-0.004578	-0.408936	0.056641	-0.589355
08406		0.168893	-0.028922	10.150152	0.006866	0.005722	-0.008392	-0.411133	0.056641	-0.598389
08407		0.182059	-0.012100	10.064716	0.002289	0.020790	0.008392	-0.408936	0.054199	-0.589111
08408		0.180041	-0.017912	10.150162	0.004005	0.017166	-0.005531	-0.411377	0.056641	-0.586426
08409		0.175868	-0.005788	10.168477	0.006104	0.022316	-0.006104	-0.411621	0.058838	-0.589600
08410		0.155725	-0.005665	10.156260	-0.002670	0.013351	-0.002480	-0.411133	0.054199	-0.595215
08411		0.152230	0.000190	10.137945	0.003815	0.007057	0.003815	-0.411133	0.054199	-0.595215
08412		0.194251	0.012583	10.076910	0.001526	0.005913	-0.013733	-0.411377	0.056641	-0.592285
08413		0.188350	-0.011670	10.119646	0.010681	0.016975	0.003815	-0.416260	0.054443	-0.585938
08414		0.168276	-0.029581	10.107437	-0.002289	0.017929	-0.004005	-0.413818	0.058838	-0.595459
08415		0.188275	-0.011889	10.101336	0.006104	0.018501	-0.010681	-0.411377	0.054199	-0.592041
08416		0.181159	0.007195	10.095215	0.010109	0.000763	-0.009918	-0.411377	0.056641	-0.595215
08417		0.170312	-0.018000	10.089122	0.006104	0.011635	-0.003052	-0.418701	0.061279	-0.595703
08418		0.193201	0.000910	10.150163	0.006485	0.017166	-0.008583	-0.411377	0.056641	-0.592285
08419		0.188892	0.000629	10.083014	0.012207	0.006294	-0.014496	-0.406494	0.056396	-0.592529
08420		0.175766	0.001340	10.095225	0.001907	0.011253	-0.004768	-0.411377	0.058838	-0.592529
08421		0.170462	-0.005368	10.162361	0.014496	0.008583	0.000763	-0.411133	0.049805	-0.597656
08422		0.187580	-0.004393	10.113538	0.005341	0.013351	-0.010109	-0.404053	0.051758	-0.589111
08423		0.182865	-0.017762	10.131841	0.010681	0.004768	-0.007629	-0.404053	0.054199	-0.589355
08424		0.176122	-0.029087	10.101327	0.007439	0.008011	-0.007057	-0.408936	0.056641	-0.586426
08425		0.176336	0.000547	10.119641	0.010681	0.013161	-0.006866	-0.406494	0.056396	-0.589355
08426		0.193247	0.008019	10.070814	0.017166	0.014496	-0.002289	-0.406494	0.054199	-0.595215
08427		0.170310	0.007103	10.113535	0.019836	0.011635	0.003815	-0.411621	0.058838	-0.589600
08428		0.193967	-0.009971	10.125735	0.006485	0.002098	-0.000763	-0.408936	0.056641	-0.595459
08429		0.200753	0.012602	10.058607	0.007629	0.013161	-0.011444	-0.416504	0.061279	-0.589844
08430		0.193341	-0.005315	10.113538	0.000381	0.012589	-0.006294	-0.408936	0.054199	-0.595215
08431		0.188698	-0.006150	10.107431	-0.000763	0.010109	0.008392	-0.411621	0.058838	-0.592773
08432		0.181458	0.000397	10.119640	0.009727	0.011826	0.000000	-0.408936	0.054443	-0.589355
08433		0.218832	-0.011936	10.089131	0.005341	0.017738	-0.001526	-0.411377	0.056641	-0.592529
08434		0.180541	-0.029828	10.113539	0.004196	0.014877	-0.000191	-0.408936	0.058838	-0.595703
08435		0.170116	-0.029584	10.137955	0.018311	0.015450	-0.006866	-0.409180	0.061279	-0.589844
08436		0.174612	0.002302	10.076918	0.009727	0.015259	0.000572	-0.409180	0.058838	-0.592773
08437		0.176450	0.006886	10.156259	0.015259	0.010872	-0.009155	-0.411621	0.061279	-0.589844
08438		0.175219	-0.004282	10.144054	0.005722	0.012589	-0.006294	-0.416260	0.056885	-0.592285
08439		0.188387	0.000192	10.137955	0.003815	0.016212	0.001526	-0.408936	0.058838	-0.598633
08440		0.192918	0.006834	10.150159	0.008583	0.013351	-0.009155	-0.413818	0.056641	-0.592529
08441		0.176373	0.012592	10.150157	0.007629	0.012398	0.002289	-0.408936	0.054443	-0.592285
08442		0.174932	0.001244	10.119643	0.009537	0.016403	0.002098	-0.411377	0.058838	-0.598633
08443		0.170194	-0.005641	10.113538	0.009155	0.013924	0.000763	-0.411621	0.058838	-0.592773
08444		0.187056	-0.005072	10.107435	0.003433	0.014305	-0.000191	-0.404053	0.052002	-0.592285
08445		0.176453	-0.023946	10.107433	0.009155	0.010872	-0.006104	-0.414062	0.059082	-0.589600
08446		0.199904	-0.010784	10.156258	0.011063	0.007248	-0.003242	-0.416260	0.054443	-0.589111
08447		0.188814	0.000769	10.113533	0.015259	0.007820	0.002289	-0.411377	0.056641	-0.592529
08448		0.169480	-0.022449	10.144053	0.008583	0.011063	-0.004768	-0.408936	0.054199	-0.595215
08449		0.188353	-0.005471	10.095231	0.012207	0.016975	-0.016785	-0.411377	0.056641	-0.592529
08450		0.211037	0.007601	10.131854	0.004959	0.017166	-0.006294	-0.409180	0.056641	-0.589600
08451		0.207008	-0.012283	10.131846	-0.001526	0.010109	-0.001526	-0.408936	0.056641	-0.592529
08452		0.175372	0.030399	10.144053	0.001335	0.011444	-0.004768	-0.408936	0.058838	-0.595703
08453		0.182554	0.006418	10.137949	0.006104	0.010872	-0.005341	-0.408936	0.056641	-0.595459
08454		0.175403	-0.023735	10.144051	0.002098	0.008965	-0.000191	-0.413818	0.052246	-0.589111
08455		0.188391	0.006871	10.089126	0.015259	0.016212	0.002289	-0.408936	0.058838	-0.601807
08456		0.187009	-0.016148	10.150156	0.012398	0.009537	-0.007629	-0.408936	0.058838	-0.595703
08457		0.163855	0.006298	10.162369	0.003815	0.018501	-0.000763	-0.404297	0.056396	-0.586670
08458		0.193010	0.018854	10.101325	0.005150	0.007820	0.002861	-0.409180	0.058838	-0.589600
08459		0.188430	-0.005443	10.089126	0.012970	0.015450	-0.006104	-0.408936	0.054443	-0.592285
08460		0.187039	0.001218	10.089122	-0.000381	0.010872	0.002861	-0.411621	0.061279	-0.586914
08461		0.207006	0.000205	10.150157	0.003815	0.010109	-0.011444	-0.409180	0.056641	-0.589600
08462		0.181516	0.006736	10.125742	0.004959	0.010681	0.000572	-0.406738	0.061035	-0.589844
08463		0.181941	-0.000153	10.095236	-0.003052	0.023079	-0.000763	-0.408936	0.052002	-0.586182
08464		0.179848	-0.006301	10.168473	0.003624	0.017166	0.000763	-0.404053	0.054199	-0.598389
08465		0.163666	-0.018147	10.125751	0.003052	0.022316	-0.010681	-0.414062	0.059082	-0.592529
08466		0.174288	-0.017462	10.137948	0.011063	0.008392	-0.001526	-0.411377	0.056641	-0.592529
08467		0.176567	-0.005906	10.144051	0.003815	0.008583	-0.004578	-0.413818	0.056641	-0.592529
08468		0.175960	-0.005274	10.137943	0.008774	0.003624	-0.003815	-0.411377	0.056641	-0.592529
08469		0.225361	0.049096	10.052499	0.005341	0.009346	0.000763	-0.408936	0.054443	-0.592285
08470		0.169848	0.019139	10.083009	0.006866	0.001907	-0.006104	-0.408936	0.056641	-0.592529
08471		0.170541	0.000277	10.119635	0.005341	0.007057	-0.008392	-0.406494	0.056396	-0.598633
08472		0.187905	-0.004739	10.131846	0.017357	0.010681	-0.008392	-0.406494	0.056641	-0.595459
08473		0.182748	-0.011616	10.150154	0.011444	0.007057	-0.011444	-0.414062	0.059082	-0.589600
08474		0.187693	-0.010805	10.131850	0.004959	0.014877	-0.007057	-0.408936	0.054443	-0.592285
08475		0.157986	0.000348	10.125743	0.006866	0.013924	-0.000763	-0.408936	0.056641	-0.595459
08476		0.187256	-0.016992	10.150157	0.012779	0.010300	-0.003052	-0.411377	0.054443	-0.595215
08477		0.176377	0.000581	10.076915	0.011444	0.012398	-0.004578	-0.406494	0.056641	-0.592529
08478		0.181567	0.001735	10.131839	0.011635	0.004005	-0.001526	-0.406738	0.058838	-0.589844
08479		0.188273	0.006490	10.113543	0.007629	0.018501	-0.000763	-0.411377	0.054443	-0.595215
08480		0.174113	0.007244	10.095232	0.007439	0.019455	-0.002480	-0.409180	0.058838	-0.592773
08481		0.158411	-0.012051	10.131841	0.003052	0.005531	-0.001526	-0.411621	0.056641	-0.589355
08482		0.200391	0.006617	10.095128	0.004387	0.008965	-0.006294	-0.413818	0.059082	-0.595703
08483		0.170271	-0.024327	10.137950	0.001526	0.012398	-0.011444	-0.406738	0.058838	-0.586670
08484		0.162749	-0.017758	10.076918	0.008965	0.016022	-0.006866	-0.406250	0.052002	-0.595215
08485		0.176152	0.006444	10.015884	0.006866	0.016975	0.003815	-0.411377	0.056641	-0.592529
08486		0.174493	-0.016827	10.131851	0.016022	0.015640	-0.004578	-0.409180	0.056641	-0.586426
08487		0.188348	0.012403	10.137955	0.003815	0.016975	-0.002289	-0.411377	0.056641	-0.592529
08488		0.174794	-0.005564	10.101327	0.003052	0.009727	-0.004768	-0.406494	0.058838	-0.595703
08489		0.182126	0.006412	10.168474	0.006104	0.019264	0.002289	-0.414062	0.059082	-0.592529
08490		0.174360	0.025569	10.144053	0.011444	0.012589	-0.002289	-0.413818	0.056641	-0.595459
08491		0.176030	0.018854	10.083024	0.010681	0.019264	-0.006104	-0.408936	0.054443	-0.592285
08492		0.162311	-0.010989	10.107430	0.003242	0.009537	-0.006294	-0.408936	0.054443	-0.592285
08493		0.176529	-0.018309	10.125741	0.000000	0.009346	-0.001526	-0.413818	0.052246	-0.585938
08494		0.199866	-0.006130	10.095227	-0.000763	0.011826	-0.011635	-0.411621	0.056641	-0.589355
08495		0.212612	0.012403	10.095236	0.003815	0.020027	-0.003052	-0.409180	0.058838	-0.589600
08496		0.192658	-0.004617	10.046400	0.021935	0.012970	-0.003052	-0.411377	0.056641	-0.592529
08497		0.176027	-0.005674	10.125750	0.008392	0.019264	-0.005341	-0.404297	0.058838	-0.589844
08498		0.149795	-0.004931	10.107434	0.008011	0.015640	-0.006104	-0.406738	0.058838	-0.589844
08499		0.182518	0.006574	10.101329	0.009155	0.011635	-0.008392	-0.406494	0.058838	-0.595703
08500		0.193261	0.019744	10.119643	0.011253	0.016022	-0.006294	-0.409180	0.058838	-0.592773
08501		0.188509	-0.005714	10.058607	0.007629	0.013924	-0.006104	-0.413818	0.054443	-0.592285
08502		0.205415	0.000677	10.089125	-0.001907	0.013351	-0.010109	-0.411621	0.056641	-0.589355
08503		0.182286	0.012671	10.113540	0.009155	0.016212	-0.001526	-0.409180	0.056641	-0.589600
08504		0.180486	0.013286	10.076920	0.004387	0.017929	0.000572	-0.413818	0.054443	-0.589111
08505		0.176261	0.000204	10.089124	0.003815	0.014687	-0.012970	-0.413818	0.054443	-0.589111
08506		0.156260	-0.011918	10.101332	-0.001907	0.017929	-0.005531	-0.414062	0.059082	-0.586670
08507		0.207124	0.012829	10.107429	0.012207	0.007820	-0.004578	-0.413818	0.054443	-0.586182
08508		0.175235	-0.004577	10.137955	0.007439	0.017929	-0.006294	-0.411377	0.054443	-0.589355
08509		0.170619	-0.017729	10.113531	0.011444	0.005531	-0.003052	-0.406494	0.052002	-0.589111
08510		0.151456	-0.010694	10.113534	0.007248	0.011063	-0.002480	-0.406494	0.056641	-0.595459
08511		0.188891	-0.011307	10.137946	0.017548	0.006294	-0.010681	-0.406494	0.056641	-0.595459
08512		0.181683	0.002060	10.150160	0.006676	0.014877	-0.005531	-0.406494	0.054199	-0.592285
08513		0.188311	-0.005940	10.125749	0.003052	0.017738	-0.009918	-0.411621	0.061279	-0.592773
08514		0.174495	-0.017501	10.125745	0.010300	0.013733	-0.002289	-0.411377	0.056641	-0.595459
08515		0.182168	-0.030127	10.137958	0.007629	0.018501	-0.004578	-0.413574	0.052246	-0.594971
08516		0.168427	0.025239	10.156259	0.000954	0.011063	-0.016212	-0.411621	0.061279	-0.595947
08517		0.158605	0.000508	10.101320	0.009918	0.001717	-0.009155	-0.406494	0.054199	-0.592285
08518		0.164227	-0.023424	10.174567	0.000572	0.007439	-0.009346	-0.411377	0.054443	-0.592285
08519		0.189007	-0.011943	10.089115	0.005341	0.004005	0.006104	-0.414062	0.059082	-0.592529
08520		0.175816	0.000996	10.046399	0.010109	0.014114	-0.012398	-0.413818	0.054443	-0.592285
08521		0.188315	0.018774	10.076920	0.009155	0.017738	-0.002289	-0.413818	0.056641	-0.595459
08522		0.168596	-0.023809	10.095222	-0.005150	0.009727	-0.007820	-0.416260	0.056885	-0.589355
08523		0.176876	-0.005523	10.137942	0.011444	0.002480	0.000000	-0.414062	0.059082	-0.586670
08524		0.200183	-0.023008	10.131855	0.005150	0.018692	-0.000954	-0.408936	0.054199	-0.595215
08525		0.170706	-0.042561	10.076908	0.003242	0.003815	0.000000	-0.411377	0.054443	-0.589355
08526		0.187884	0.000639	10.101334	0.006866	0.016785	-0.006104	-0.411377	0.054443	-0.595215
08527		0.157869	-0.024370	10.156263	0.000763	0.016212	-0.006104	-0.409180	0.058838	-0.589600
08528		0.180482	0.012616	10.107438	0.007820	0.017929	-0.015259	-0.408936	0.056641	-0.592529
08529		0.176219	0.000897	10.131850	0.017548	0.015450	-0.009155	-0.413818	0.056641	-0.595459
08530		0.162653	-0.009820	10.125741	0.012970	0.010300	-0.016975	-0.411377	0.052002	-0.589111
08531		0.182516	0.000744	10.125743	0.014496	0.011635	-0.010681	-0.411377	0.052002	-0.592041
08532		0.174931	-0.004371	10.137954	0.005913	0.016403	-0.002480	-0.411621	0.058838	-0.589600
08533		0.170541	-0.018116	10.144049	0.003815	0.007057	-0.001526	-0.409180	0.056641	-0.589600
08534		0.199852	-0.023767	10.131852	0.005150	0.015831	-0.004768	-0.413818	0.052246	-0.592041
08535		0.164093	-0.017886	10.089124	0.008392	0.013924	-0.001526	-0.406494	0.054199	-0.595215
08536		0.175197	-0.023529	10.089118	0.002289	0.007439	-0.007057	-0.411377	0.056641	-0.595459
08537		0.170466	-0.030124	10.107430	0.007629	0.008583	-0.009155	-0.411621	0.056641	-0.586426
08538		0.181267	0.001021	10.076922	0.004959	0.019455	-0.008583	-0.408936	0.056641	-0.595459
08539		0.163444	-0.005681	10.046409	0.008392	0.026894	-0.000763	-0.416260	0.056885	-0.589355
08540		0.179201	-0.011157	10.119649	0.005531	0.022507	-0.007820	-0.411377	0.054443	-0.598145
08541		0.182209	-0.011864	10.101335	0.006866	0.017738	0.004578	-0.408691	0.052002	-0.594971
08542		0.180419	-0.017176	10.192887	0.009155	0.017166	-0.000191	-0.418945	0.059082	-0.592529
08543		0.188315	0.006144	10.083025	0.000763	0.017738	-0.002289	-0.409180	0.056641	-0.589600
08544		0.204802	0.006096	10.101337	-0.000191	0.017929	-0.002480	-0.411377	0.052246	-0.586182
08545		0.188930	0.000540	10.101324	0.010681	0.005531	-0.000763	-0.409180	0.058838	-0.583740
08546		0.163244	-0.010714	10.064714	0.008774	0.019455	-0.002480	-0.408936	0.052002	-0.592041
08547		0.175836	-0.024099	10.113547	0.006104	0.023079	-0.006866	-0.409180	0.058838	-0.589600
08548		0.161619	-0.023657	10.131849	0.003624	0.015640	-0.000954	-0.413818	0.054443	-0.595215
08549		0.176105	-0.011927	10.119645	0.005341	0.017738	-0.010681	-0.413818	0.054443	-0.595215
08550		0.180640	-0.005071	10.070813	0.011063	0.012970	0.001526	-0.413818	0.056641	-0.592529
08551		0.194685	0.012409	10.107434	0.003815	0.012398	-0.009918	-0.411621	0.058838	-0.592773
08552		0.169650	0.006578	10.113524	0.001907	-0.001717	0.003624	-0.406250	0.049561	-0.597900
08553		0.164054	-0.017919	10.101331	0.007629	0.014687	-0.007629	-0.411377	0.056641	-0.592529
08554		0.168423	0.000817	10.162369	0.001144	0.018692	0.005150	-0.413818	0.052246	-0.592041
08555		0.176107	-0.024333	10.101334	0.001526	0.017738	-0.004578	-0.416260	0.052246	-0.588867
08556		0.198891	-0.011617	10.101333	0.009727	0.014114	-0.003815	-0.406738	0.058838	-0.586670
08557		0.182130	-0.024138	10.137958	0.005341	0.019264	-0.006104	-0.413818	0.056641	-0.595459
08558		0.180394	0.013076	10.040295	0.007629	0.014114	-0.009918	-0.406494	0.056641	-0.592529
08559		0.182749	-0.018075	10.107429	0.004578	0.007057	-0.004578	-0.414062	0.056641	-0.589355
08560		0.187853	-0.005800	10.034191	-0.001717	0.011826	-0.008583	-0.411377	0.056641	-0.592529
08561		0.194418	0.000427	10.089129	0.008392	0.017738	-0.003815	-0.409180	0.056641	-0.589600
08562		0.168262	-0.016691	10.070816	0.016785	0.016403	-0.012970	-0.414062	0.056641	-0.586426
08563		0.194414	-0.011928	10.131854	0.005341	0.017738	-0.009155	-0.406494	0.056396	-0.598633
08564		0.174748	-0.005258	10.095223	0.007057	0.008774	-0.014496	-0.413818	0.052246	-0.589111
08565		0.176145	-0.005867	10.095230	0.004578	0.016975	-0.006104	-0.414062	0.056641	-0.589355
08566		0.199200	-0.011069	10.083019	0.014877	0.009918	-0.006104	-0.411377	0.054443	-0.595215
08567		0.212886	-0.030123	10.058611	0.007629	0.014687	-0.009918	-0.411621	0.056641	-0.589355
08568		0.187200	-0.005011	10.137949	0.006294	0.009537	-0.010872	-0.411621	0.058838	-0.592773
08569		0.164014	0.006761	10.107434	0.012970	0.015450	-0.002289	-0.411621	0.059082	-0.586670
08570		0.199236	-0.010449	10.101330	0.010300	0.011063	0.002098	-0.414062	0.059082	-0.592529
08571		0.200826	0.000206	10.144055	0.003815	0.011635	-0.012207	-0.414062	0.056641	-0.589355
08572		0.199461	-0.005809	10.131850	-0.001717	0.014114	-0.000191	-0.404297	0.056396	-0.586670
08573		0.176607	-0.024174	10.131843	0.004578	0.007820	-0.009155	-0.409180	0.058838	-0.589600
08574		0.206142	-0.011799	10.089122	0.000381	0.010300	-0.007057	-0.406494	0.056641	-0.592529
08575		0.182481	-0.024289	10.089123	0.002289	0.012398	-0.010681	-0.406494	0.054199	-0.589355
08576		0.174717	-0.024114	10.168474	0.002098	0.018692	-0.002480	-0.414062	0.056641	-0.586426
08577		0.176103	0.006846	10.131851	0.014496	0.017738	-0.009155	-0.408936	0.056641	-0.592529
08578		0.186954	-0.028380	10.137950	0.013733	0.008774	-0.012207	-0.411377	0.056641	-0.595459
08579		0.176185	-0.017533	10.089127	0.015259	0.016212	-0.009155	-0.416260	0.056885	-0.592285
08580		0.205255	-0.016878	10.076917	-0.001907	0.012779	-0.002480	-0.406494	0.054199	-0.592285
08581		0.176144	0.012741	10.107436	0.010681	0.016975	0.006866	-0.406494	0.056641	-0.592529
08582		0.186780	-0.016976	10.089125	0.005722	0.014114	0.002861	-0.409180	0.056641	-0.589600
08583		0.176723	-0.011701	10.101324	0.009918	0.005531	-0.006104	-0.411377	0.054443	-0.595215
08584		0.175292	0.001217	10.113545	0.005150	0.022507	-0.003242	-0.411377	0.054443	-0.595215
08585		0.164129	-0.017772	10.113537	0.010681	0.013161	0.001526	-0.404053	0.054199	-0.592285
08586		0.180979	-0.017105	10.125747	0.003052	0.015640	-0.002480	-0.413818	0.054443	-0.595215
08587		0.182558	-0.011665	10.076915	0.010681	0.010872	-0.004578	-0.406494	0.056641	-0.595459
08588		0.187331	0.001494	10.119642	0.008965	0.014496	0.008965	-0.408936	0.056641	-0.595459
08589		0.182048	0.000789	10.174580	0.015259	0.020790	-0.013733	-0.411377	0.054443	-0.592285
08590		0.156198	-0.016562	10.101325	0.004387	0.007820	-0.000954	-0.408691	0.052002	-0.594971
08591		0.194955	0.006345	10.113532	0.004578	0.007057	-0.009918	-0.408936	0.056641	-0.595459
08592		0.200228	0.000762	10.119637	0.007439	0.008392	-0.003815	-0.411377	0.052002	-0.592041
08593		0.194534	0.000430	10.076919	0.008392	0.015450	-0.007629	-0.409180	0.056641	-0.589600
08594		0.192821	0.006852	10.131853	-0.000381	0.017166	-0.004768	-0.411377	0.056641	-0.595459
08595		0.151807	-0.011859	10.113538	0.006866	0.015450	-0.000763	-0.409180	0.056641	-0.589600
08596		0.180761	-0.011146	10.119642	0.007629	0.014305	-0.007820	-0.411377	0.056641	-0.595459
08597		0.176105	-0.012397	10.119644	-0.003815	0.017738	-0.003815	-0.416016	0.054443	-0.598145
08598		0.174418	0.012087	10.113538	0.006866	0.015259	-0.010681	-0.408936	0.056641	-0.592529
08599		0.182247	0.006802	10.113540	0.013733	0.016975	-0.004578	-0.413818	0.056641	-0.592529
08600		0.198717	0.001642	10.101338	0.005913	0.019455	-0.007820	-0.408936	0.054199	-0.595215
08601		0.176454	-0.006102	10.083017	0.000000	0.010872	-0.001526	-0.409180	0.056641	-0.586426
08602		0.181480	-0.017747	10.095225	0.011063	0.009537	-0.005341	-0.406738	0.058838	-0.592773
08603		0.176381	-0.017852	10.021984	0.009155	0.012398	0.000763	-0.411377	0.052002	-0.589111
08604		0.187198	-0.010594	10.131849	0.014687	0.013351	-0.011444	-0.413818	0.059082	-0.598633
08605		0.194218	0.000432	10.156271	0.008392	0.021553	-0.006104	-0.414062	0.061279	-0.595703
08606		0.186069	0.025195	10.131853	0.000381	0.018692	0.001335	-0.406494	0.054199	-0.595215
08607		0.188939	-0.006054	10.107427	0.000954	0.005341	-0.001526	-0.411377	0.056641	-0.595459
08608		0.145556	0.012519	10.095220	0.006104	0.007057	-0.004768	-0.411377	0.054443	-0.592285
08609		0.176452	-0.011937	10.125742	0.005341	0.010872	0.000000	-0.413818	0.056641	-0.595459
08610		0.175261	-0.005040	10.101329	0.011444	0.011826	-0.009918	-0.411377	0.052002	-0.589111
08611		0.206388	0.024583	10.125755	0.003052	0.022316	-0.013733	-0.411621	0.059082	-0.586670
08612		0.186280	0.018618	10.150158	0.000191	0.012589	-0.012398	-0.411377	0.054443	-0.595215
08613		0.194689	0.000694	10.058606	0.013733	0.012398	-0.003052	-0.416260	0.056885	-0.589355
08614		0.180922	-0.016604	10.107439	0.007248	0.018692	-0.005531	-0.409180	0.056641	-0.589600
08615		0.225280	-0.005820	10.119641	0.005341	0.010872	-0.012207	-0.406738	0.058838	-0.592773
08616		0.187333	-0.011122	10.101333	0.012016	0.014496	-0.001526	-0.418701	0.052246	-0.592041
08617		0.188269	0.018628	10.156267	0.006104	0.018501	-0.008392	-0.409180	0.058838	-0.592773
08618		0.168280	-0.011225	10.083020	0.008011	0.014114	-0.006866	-0.408936	0.054199	-0.595215
08619		0.164325	-0.023790	10.083017	0.012207	0.009346	-0.010681	-0.413818	0.054443	-0.592285
08620		0.193528	-0.010194	10.131853	0.015068	0.016403	-0.010109	-0.413818	0.056641	-0.595459
08621		0.182476	-0.005634	10.162365	0.009155	0.012398	-0.004578	-0.408936	0.056641	-0.598389
08622		0.199869	-0.029095	10.125738	0.011063	0.004196	-0.003815	-0.409180	0.058838	-0.589600
08623		0.206586	0.006768	10.089130	0.012970	0.018501	-0.009918	-0.413818	0.056641	-0.595459
08624		0.180679	-0.010559	10.101328	0.007820	0.010300	-0.014687	-0.409180	0.056641	-0.589600
08625		0.163936	-0.011854	10.119643	0.006866	0.016975	-0.006866	-0.413818	0.059082	-0.598633
08626		0.187174	0.007035	10.113531	0.005150	0.006294	-0.004005	-0.411377	0.054443	-0.592285
08627		0.200712	0.006655	10.107436	0.010681	0.013924	-0.011444	-0.416260	0.056641	-0.598389
08628		0.193273	-0.005071	10.137951	-0.000381	0.012016	-0.003242	-0.408936	0.052002	-0.589111
08629		0.188938	-0.012315	10.150151	-0.002098	0.005341	0.001526	-0.411621	0.061279	-0.589844
08630		0.187981	-0.030528	10.131849	0.005341	0.012970	-0.005341	-0.418701	0.054443	-0.592041
08631		0.194995	0.006306	10.083014	0.003815	0.006294	-0.010681	-0.408936	0.054443	-0.592285
08632		0.199823	0.019149	10.107439	0.008965	0.018311	-0.004005	-0.411377	0.052002	-0.592041
08633		0.194956	-0.018162	10.089118	0.003052	0.007057	0.005341	-0.408936	0.054443	-0.592285
08634		0.193798	0.013080	10.095229	0.011444	0.014877	-0.009155	-0.404053	0.054199	-0.595459
08635		0.182247	0.000349	10.113541	0.006866	0.016975	-0.002289	-0.411377	0.058838	-0.595703
08636		0.162780	-0.017246	10.119634	0.007629	0.005913	-0.012970	-0.408936	0.054199	-0.595215
08637		0.188394	0.000230	10.058609	0.004578	0.016212	0.000000	-0.413818	0.054443	-0.592285
08638		0.186415	-0.005755	10.083030	-0.000763	0.023270	-0.006294	-0.411621	0.059082	-0.586670
08639		0.170542	-0.011631	10.101325	0.011444	0.007057	0.002289	-0.411377	0.056641	-0.598389
08640		0.181967	-0.016662	10.107429	0.009918	0.007439	-0.003242	-0.406738	0.056641	-0.589600
08641		0.182328	0.012520	10.064711	0.006104	0.015450	-0.006866	-0.408936	0.054443	-0.586426
08642		0.180885	0.013499	10.125742	0.014114	0.011826	-0.006104	-0.411377	0.054443	-0.592285
08643		0.182174	0.006538	10.064714	0.008392	0.018501	-0.012970	-0.416260	0.059082	-0.598633
08644		0.193097	-0.016891	10.113532	0.010872	0.006104	-0.011444	-0.411377	0.054443	-0.592285
08645		0.176261	-0.018149	10.101332	0.003052	0.014687	-0.008392	-0.406738	0.061035	-0.586914
08646		0.168754	-0.011330	10.150157	0.011444	0.012207	-0.012207	-0.411621	0.058838	-0.589600
08647		0.188892	0.000508	10.070807	0.009918	0.006294	-0.009155	-0.408936	0.056641	-0.595459
08648		0.194423	0.001248	10.125737	0.005722	0.004387	-0.004768	-0.413818	0.054443	-0.589111
08649		0.152075	-0.023903	10.174569	0.009918	0.010109	-0.008392	-0.408936	0.054443	-0.592285
08650		0.169253	-0.029429	10.095225	0.002670	0.011826	-0.000191	-0.411377	0.054443	-0.595215
08651		0.151883	-0.011507	10.125744	0.013733	0.013924	-0.006104	-0.416260	0.056885	-0.595459
08652		0.186853	-0.010301	10.113543	0.011253	0.018311	-0.001717	-0.408936	0.058838	-0.598633
08653		0.194532	0.012173	10.095230	-0.000763	0.015450	-0.004578	-0.411621	0.056641	-0.589355
08654		0.150275	-0.005982	10.070811	0.004196	0.013733	-0.007629	-0.414062	0.056641	-0.589355
08655		0.145857	-0.036574	10.162363	0.000763	0.012398	-0.011444	-0.409180	0.058838	-0.589600
08656		0.175445	0.006314	10.095219	0.004196	0.004387	0.001335	-0.408936	0.054199	-0.595215
08657		0.170349	-0.005833	10.113535	0.005341	0.010872	-0.000763	-0.411377	0.056641	-0.595459
08658		0.187391	-0.011092	10.089125	0.012589	0.013351	-0.003815	-0.413818	0.054443	-0.589111
08659		0.194372	-0.006021	10.168475	0.001526	0.018501	-0.005341	-0.413818	0.056641	-0.592529
08660		0.162355	-0.018310	10.150155	-0.001907	0.010490	-0.002480	-0.406494	0.058838	-0.595703
08661		0.176301	-0.030319	10.076917	0.003815	0.013924	-0.006866	-0.411621	0.056641	-0.586426
08662		0.199387	0.000936	10.119641	0.010681	0.011826	-0.013733	-0.411377	0.054443	-0.592285
08663		0.170312	-0.024066	10.089122	0.006866	0.011635	-0.001526	-0.408936	0.056641	-0.601562
08664		0.181305	0.000959	10.137949	0.005531	0.011063	-0.011635	-0.406494	0.054199	-0.598389
08665		0.194995	-0.011236	10.101326	0.019073	0.006294	-0.007629	-0.413818	0.056641	-0.598389
08666		0.200633	0.002579	10.070803	0.013351	0.002289	0.000572	-0.411133	0.049805	-0.591797
08667		0.176380	-0.030085	10.058606	0.008392	0.012398	-0.011444	-0.416504	0.059082	-0.592529
08668		0.193264	0.001164	10.113539	0.005913	0.014114	-0.007057	-0.408936	0.054443	-0.592285
08669		0.194726	-0.011595	10.076916	0.012207	0.011635	0.003052	-0.411621	0.058838	-0.592773
08670		0.156776	0.001420	10.113536	0.005341	0.013351	-0.007057	-0.408936	0.056641	-0.598389
08671		0.164824	0.012794	10.192870	0.011444	-0.000572	-0.004578	-0.411377	0.056641	-0.598389
08672		0.194637	-0.016708	10.119547	0.008965	0.013351	-0.004768	-0.406250	0.052002	-0.595215
08673		0.170388	0.000198	10.089120	0.003815	0.010109	-0.006104	-0.413818	0.052246	-0.592041
08674		0.181719	-0.023742	10.156257	0.005531	0.006676	-0.010681	-0.414062	0.063477	-0.590088
08675		0.194569	0.012675	10.119643	0.009155	0.014687	-0.004578	-0.416504	0.059082	-0.592529
08676		0.211577	0.007328	10.089122	0.007057	0.010300	-0.009346	-0.408936	0.056641	-0.595459
08677		0.170193	-0.024177	10.137952	0.004578	0.013924	-0.005341	-0.411377	0.054443	-0.595215
08678		0.199155	0.000757	10.125749	0.007248	0.016403	-0.008392	-0.413818	0.059082	-0.595703
08679		0.201058	0.006455	10.150153	0.006866	0.007057	-0.003052	-0.411133	0.052002	-0.594971
08680		0.194028	-0.016912	10.131847	0.014305	0.010300	-0.006294	-0.416260	0.056885	-0.595459
08681		0.194879	0.006415	10.089120	0.006104	0.008583	-0.003815	-0.411377	0.056641	-0.592529
08682		0.175097	0.001023	10.174577	0.008774	0.018692	-0.005531	-0.411377	0.056641	-0.592529
08683		0.188036	0.006607	10.168479	0.009918	0.023079	0.000763	-0.409180	0.056641	-0.589600
08684		0.198201	-0.011046	10.137956	0.004005	0.016403	-0.004005	-0.408936	0.052002	-0.592041
08685		0.194418	0.006145	10.083025	0.000763	0.017738	-0.003052	-0.408936	0.054199	-0.598389
08686		0.198467	0.018749	10.095236	0.008392	0.022507	-0.015259	-0.411377	0.054443	-0.592285
08687		0.188930	-0.011544	10.095221	0.012970	0.005531	-0.008392	-0.413818	0.052246	-0.585938
08688		0.157216	-0.023638	10.089124	-0.009346	0.017929	-0.009346	-0.406494	0.052002	-0.592041
08689		0.188547	-0.018157	10.058606	0.003052	0.013161	0.000000	-0.416260	0.052246	-0.588867
08690		0.205195	0.006682	10.168477	0.005722	0.019455	-0.001526	-0.408691	0.052002	-0.594971
08691		0.194565	-0.024189	10.168472	0.004578	0.014687	0.007629	-0.411377	0.058838	-0.595703
08692		0.181435	-0.017491	10.101322	0.008774	0.002861	0.006104	-0.411377	0.058838	-0.598633
08693		0.182672	-0.029703	10.119639	0.016022	0.008583	-0.004578	-0.411377	0.054443	-0.586182
08694		0.181512	0.001841	10.156261	0.004196	0.012589	-0.007820	-0.406494	0.056641	-0.592529
08695		0.182591	0.000047	10.186777	0.000763	0.010109	-0.009155	-0.409180	0.058838	-0.592773
08696		0.175636	-0.017672	10.070807	0.012589	0.006294	-0.005341	-0.411377	0.056641	-0.595459
08697		0.206775	0.000515	10.144058	0.009918	0.014687	-0.011444	-0.413574	0.052246	-0.594971
08698		0.199321	0.013156	10.107433	-0.000191	0.011253	-0.004768	-0.411621	0.058838	-0.592773
08699		0.182481	-0.006214	10.083019	-0.002289	0.012398	-0.005341	-0.414062	0.061279	-0.592773
08700		0.180689	0.030420	10.113544	0.003624	0.021362	-0.005341	-0.411377	0.056641	-0.595459
08701		0.200362	0.012869	10.131856	0.012970	0.020790	-0.005341	-0.411377	0.056641	-0.592529
08702		0.186831	-0.010439	10.107428	0.010490	0.005531	0.001526	-0.408936	0.054199	-0.598389
08703		0.158412	-0.030321	10.113530	0.003815	0.005531	-0.004578	-0.411377	0.058838	-0.595703
08704		0.163355	-0.011531	10.101333	0.005913	0.017166	0.004387	-0.411377	0.056641	-0.592529
08705		0.194144	0.006416	10.125755	0.006104	0.023079	-0.003052	-0.411377	0.056641	-0.595459
08706		0.198460	0.000449	10.168468	-0.002480	0.011253	-0.002480	-0.408936	0.049805	-0.588867
08707		0.182444	0.000341	10.058606	0.006866	0.013161	0.004578	-0.411621	0.058838	-0.592773
08708		0.175070	-0.023345	10.101330	0.007820	0.011826	-0.007629	-0.416504	0.056885	-0.586426
08709		0.151575	-0.030085	10.131852	0.008392	0.020027	-0.009918	-0.413818	0.059082	-0.595703
08710		0.193147	-0.005080	10.095216	0.003242	0.001335	-0.001526	-0.406494	0.061035	-0.598877
08711		0.194456	-0.005558	10.095232	0.010681	0.016975	-0.006866	-0.408936	0.056641	-0.592529
08712		0.180984	0.001527	10.095222	0.009346	0.008011	-0.006866	-0.406494	0.052002	-0.589111
08713		0.182631	0.006647	10.144051	0.010681	0.009346	-0.002289	-0.406494	0.054199	-0.589355
08714		0.199789	0.007792	10.083021	0.012589	0.013351	-0.004768	-0.411377	0.052002	-0.592041
08715		0.200559	0.012752	10.095231	0.010681	0.016975	-0.005341	-0.411377	0.056641	-0.592529
08716		0.192805	0.001431	10.113540	0.007439	0.015640	-0.006294	-0.406494	0.052002	-0.592041
08717		0.194687	0.012868	10.089123	0.012970	0.012398	-0.006866	-0.408936	0.054443	-0.592285
08718		0.169380	-0.016744	10.137943	0.006294	0.003624	-0.009155	-0.411377	0.052002	-0.589111
08719		0.182596	0.000615	10.070810	0.012207	0.010109	-0.000763	-0.411133	0.052002	-0.594971
08720		0.193898	-0.016594	10.083016	0.011253	0.007248	-0.004578	-0.416504	0.059082	-0.589600
08721		0.182168	0.006417	10.131853	0.006104	0.018501	-0.004578	-0.409180	0.056641	-0.589600
08722		0.211057	0.007224	10.156263	0.010681	0.012970	-0.005341	-0.411377	0.054443	-0.592285
08723		0.182400	0.018393	10.131849	0.001526	0.013924	-0.005341	-0.411377	0.054443	-0.598145
08724		0.186909	0.024698	10.119645	0.003624	0.017166	-0.005531	-0.414062	0.061279	-0.592773
08725		0.188774	-0.012010	10.137948	0.003815	0.008583	-0.003815	-0.414062	0.061279	-0.595703
08726		0.187917	0.006706	10.150153	0.004387	0.006676	0.001335	-0.408936	0.056641	-0.595459
08727		0.182249	-0.036344	10.101335	0.005341	0.016975	-0.007629	-0.416260	0.056885	-0.595459
08728		0.181014	-0.011556	10.076911	0.003433	0.007439	-0.001526	-0.414062	0.059082	-0.589600
08729		0.182398	-0.005865	10.162366	0.004578	0.013924	-0.006866	-0.413818	0.056641	-0.595459
08730		0.181060	-0.029809	10.076916	0.006485	0.012207	-0.000763	-0.411621	0.063477	-0.593018
08731		0.176175	-0.006061	10.198989	0.000763	0.016212	-0.004578	-0.411377	0.056641	-0.595459
08732		0.168393	-0.005820	10.083021	0.005531	0.015640	-0.005341	-0.411377	0.058838	-0.595703
08733		0.176219	-0.029974	10.144058	0.010681	0.015450	-0.001526	-0.416260	0.054443	-0.595215
08734		0.181108	0.007531	10.113532	0.007439	0.007439	-0.002480	-0.406494	0.054199	-0.595215
08735		0.176141	-0.024176	10.150162	0.004578	0.016975	-0.006866	-0.408691	0.052002	-0.598145
08736		0.187223	-0.029563	10.107429	0.011253	0.005341	-0.004578	-0.406494	0.058838	-0.595703
08737		0.195187	-0.011629	10.137943	0.011444	0.002480	0.002289	-0.404053	0.054199	-0.595459
08738		0.188288	-0.010439	10.089124	0.012207	0.012589	-0.008583	-0.408936	0.054443	-0.592285
08739		0.188191	-0.048434	10.180685	0.007629	0.020027	-0.006104	-0.411377	0.054443	-0.592285
08740		0.180346	-0.016971	10.198987	0.011253	0.012970	-0.003052	-0.411621	0.058838	-0.592773
08741		0.164708	-0.005830	10.089113	0.005341	0.001717	-0.005341	-0.411377	0.056641	-0.592529
08742		0.158010	-0.017611	10.095223	0.004387	0.009727	-0.001717	-0.408936	0.054199	-0.595215
08743		0.175918	-0.011702	10.064717	0.009918	0.021553	-0.006866	-0.408936	0.054443	-0.592285
08744		0.168031	-0.023040	10.107434	0.008202	0.013351	-0.006866	-0.414062	0.059082	-0.589600
08745		0.170156	-0.017800	10.125746	0.009918	0.014687	-0.009918	-0.408936	0.054443	-0.589355
08746		0.174741	-0.028812	10.137954	0.014877	0.014496	0.003052	-0.404297	0.058838	-0.589844
08747		0.176452	0.018623	10.119638	0.006104	0.010872	-0.003815	-0.411621	0.056641	-0.589355
08748		0.168882	-0.005148	10.162368	0.007439	0.017166	-0.006294	-0.406738	0.058838	-0.589844
08749		0.194762	-0.005715	10.119640	0.007629	0.010872	-0.002289	-0.408936	0.056641	-0.595459
08750		0.187310	0.013340	10.137953	0.007248	0.014877	-0.003242	-0.411377	0.056641	-0.592529
08751		0.200905	0.006455	10.107432	0.006866	0.010109	-0.004578	-0.409180	0.058838	-0.592773
08752		0.205747	-0.005148	10.119644	0.005722	0.014305	0.001335	-0.406494	0.054199	-0.589355
08753		0.187886	-0.011625	10.125758	0.011444	0.026131	-0.003052	-0.406738	0.056641	-0.589600
08754		0.173955	-0.023252	10.168464	0.000191	0.007439	-0.009346	-0.413818	0.056641	-0.592529
08755		0.188697	0.018812	10.119638	0.009918	0.010109	0.000000	-0.414062	0.056641	-0.589355
08756		0.187716	-0.011030	10.113534	0.004387	0.008774	-0.001717	-0.409180	0.056641	-0.589600
08757		0.163975	0.000314	10.119642	0.006104	0.016212	-0.006104	-0.408691	0.049805	-0.594971
08758		0.192804	0.018827	10.119644	-0.001144	0.015640	-0.001717	-0.408936	0.052002	-0.592041
08759		0.194992	0.018819	10.180669	0.009918	0.006294	-0.003815	-0.413818	0.052246	-0.589111
08760		0.199670	0.001636	10.101340	0.013542	0.021362	0.001335	-0.408447	0.045166	-0.597412
08761		0.157990	-0.054465	10.095228	0.009155	0.013924	-0.005341	-0.408936	0.054443	-0.592285
08762		0.175312	-0.023446	10.083013	0.002098	0.005150	-0.004768	-0.413818	0.054443	-0.595215
08763		0.194302	-0.018037	10.095235	0.005341	0.020027	-0.003815	-0.408936	0.054443	-0.592285
08764		0.204783	0.001129	10.150159	0.012779	0.012589	-0.003052	-0.408936	0.056641	-0.595459
08765		0.182287	-0.012359	10.095229	-0.003052	0.016212	-0.002289	-0.409180	0.056641	-0.589600
08766		0.168061	-0.036862	10.137959	0.002670	0.022125	-0.006104	-0.406494	0.056641	-0.595459
08767		0.182478	-0.029933	10.137953	0.011444	0.012398	-0.005341	-0.408936	0.054199	-0.598389
08768		0.193455	-0.010808	10.156260	0.004768	0.010300	-0.012398	-0.408691	0.052002	-0.594971
08769		0.195080	-0.018186	10.144048	0.002480	0.004578	0.000763	-0.414062	0.061279	-0.589844
08770		0.188019	-0.011549	10.107436	0.009155	0.014114	-0.004578	-0.406738	0.056641	-0.583496
08771		0.207124	0.000422	10.119637	0.008392	0.007820	0.002289	-0.409180	0.061279	-0.589844
08772		0.212052	0.000900	10.095230	0.002480	0.014114	-0.010872	-0.408936	0.054443	-0.592285
08773		0.176183	-0.011894	10.101333	0.006104	0.016212	-0.005341	-0.408936	0.054199	-0.595215
08774		0.180792	-0.004821	10.076917	0.014114	0.013733	0.000763	-0.408936	0.052002	-0.592041
08775		0.207008	0.037130	10.089120	0.009918	0.010109	-0.008392	-0.409180	0.056641	-0.589600
08776		0.199849	-0.004730	10.052501	0.008202	0.010300	-0.007820	-0.404053	0.058838	-0.595703
08777		0.182904	-0.030052	10.076909	0.009155	0.004005	-0.004578	-0.408936	0.056641	-0.598389
08778		0.169631	-0.035584	10.119643	0.003433	0.015640	-0.006294	-0.411377	0.054443	-0.589355
08779		0.182865	-0.024098	10.119634	0.006104	0.004768	-0.007629	-0.411621	0.058838	-0.592773
08780		0.182032	-0.017203	10.101330	0.010490	0.011826	-0.006294	-0.406494	0.056641	-0.592529
08781		0.182208	-0.011575	10.131853	0.012207	0.017738	-0.015259	-0.406738	0.056641	-0.586670
08782		0.192750	0.001263	10.095229	0.000381	0.014877	-0.004005	-0.416260	0.056641	-0.598389
08783		0.194917	0.000576	10.107429	0.011444	0.007820	0.002289	-0.411377	0.054443	-0.589355
08784		0.181264	-0.010533	10.107440	0.010490	0.019455	0.000572	-0.413818	0.056641	-0.598389
08785		0.170194	-0.023634	10.131850	0.015259	0.013924	-0.008392	-0.414062	0.059082	-0.592529
08786		0.175205	-0.010208	10.131843	0.009155	0.007248	-0.010872	-0.408936	0.052002	-0.589111
08787		0.164361	-0.017955	10.125740	0.006866	0.008583	-0.009918	-0.408936	0.054199	-0.595215
08788		0.194058	-0.011092	10.137948	0.008774	0.007820	-0.002480	-0.413818	0.056641	-0.592529
08789		0.170347	-0.024685	10.144052	-0.005341	0.010872	0.000000	-0.411377	0.054443	-0.589355
08790		0.175083	-0.018784	10.156264	0.001907	0.015259	-0.002289	-0.413818	0.052246	-0.592041
08791		0.188273	-0.024142	10.119647	0.005341	0.018501	-0.001526	-0.409180	0.058838	-0.592773
08792		0.205090	-0.005889	10.131846	-0.005150	0.010300	0.001335	-0.406738	0.056641	-0.589600
08793		0.170193	-0.011783	10.131848	0.008392	0.013924	0.000763	-0.411377	0.058838	-0.595703
08794		0.162538	-0.041187	10.089128	0.015259	0.016403	-0.006104	-0.406250	0.049805	-0.594971
08795		0.182672	-0.012282	10.113533	-0.001526	0.008583	-0.002289	-0.414062	0.056641	-0.586426
08796		0.181706	-0.005752	10.144053	0.010490	0.010681	-0.010681	-0.406738	0.054199	-0.586426
08797		0.188812	-0.011552	10.137948	0.012970	0.007820	0.002289	-0.404053	0.056396	-0.592529
08798		0.206139	-0.010369	10.162365	0.011444	0.010300	-0.016212	-0.408936	0.052002	-0.592041
08799		0.188696	-0.012515	10.156259	-0.006104	0.010109	-0.002289	-0.411621	0.056641	-0.586426
08800		0.199572	-0.006520	10.168473	0.004768	0.015640	-0.008392	-0.411621	0.056641	-0.589355
08801		0.213266	-0.005991	10.107429	0.002289	0.007057	0.003052	-0.406738	0.056641	-0.586670
08802		0.181859	-0.011546	10.144052	0.009155	0.009537	-0.006104	-0.409180	0.058838	-0.592773
08803		0.188309	-0.005590	10.150164	0.009918	0.017738	-0.010681	-0.409180	0.061035	-0.593018
08804		0.161901	-0.023236	10.131854	0.004387	0.021362	-0.003242	-0.408936	0.049805	-0.588867
08805		0.182284	-0.006015	10.137954	0.001526	0.016212	-0.012207	-0.409180	0.056641	-0.586426
08806		0.167929	-0.030247	10.107443	0.003433	0.024796	-0.001526	-0.411621	0.056641	-0.586426
08807		0.225088	0.006611	10.101335	0.009918	0.014687	-0.006104	-0.408936	0.056641	-0.592529
08808		0.181029	-0.011158	10.131846	0.001907	0.010872	0.001335	-0.408936	0.052002	-0.592041
08809		0.206620	0.006218	10.137958	0.002289	0.017738	0.001526	-0.411621	0.056641	-0.583496
08810		0.174708	0.000777	10.101327	0.011444	0.009537	-0.009155	-0.413818	0.056641	-0.598389
08811		0.163976	0.000588	10.107435	0.011444	0.016212	-0.012207	-0.409180	0.056641	-0.589600
08812		0.192787	0.007707	10.095230	0.008965	0.016022	-0.006294	-0.406494	0.049805	-0.588867
08813		0.182632	0.000278	10.131844	0.005341	0.009346	-0.007629	-0.411377	0.054443	-0.592285
08814		0.205988	0.000848	10.095227	0.007248	0.011444	-0.004768	-0.411377	0.056641	-0.595459
08815		0.182482	-0.036321	10.040296	0.006104	0.012398	0.006866	-0.411377	0.054443	-0.592285
08816		0.187062	0.019245	10.113542	0.007057	0.017929	-0.005531	-0.409180	0.058838	-0.589600
08817		0.189008	-0.017880	10.089116	0.008392	0.004005	-0.007629	-0.408936	0.052002	-0.592041
08818		0.188569	0.001093	10.076907	0.006676	0.003242	0.006676	-0.408936	0.054199	-0.598389
08819		0.200676	0.006148	10.070816	0.000763	0.014687	-0.006104	-0.406494	0.052002	-0.589111
08820		0.186931	0.006602	10.107436	0.009727	0.014877	-0.006866	-0.411133	0.052002	-0.601074
08821		0.170658	-0.012088	10.107426	0.002289	0.004768	-0.003815	-0.413818	0.059082	-0.595703
08822		0.169710	-0.018227	10.095227	-0.002289	0.014114	-0.010109	-0.406494	0.054199	-0.595215
08823		0.164052	-0.005291	10.113538	0.016022	0.014687	-0.003052	-0.411621	0.056641	-0.589355
08824		0.181244	-0.035151	10.058600	-0.001144	0.006676	-0.001717	-0.408691	0.052002	-0.594971
08825		0.219373	-0.012250	10.021980	-0.000763	0.007057	0.004578	-0.408936	0.056641	-0.595459
08826		0.181850	-0.005818	10.137949	0.007439	0.009727	-0.003815	-0.411377	0.054443	-0.589355
08827		0.213035	0.006495	10.101331	0.007629	0.011635	-0.005341	-0.411621	0.058838	-0.592773
08828		0.193376	-0.010793	10.150161	0.012779	0.013733	-0.002289	-0.413818	0.054443	-0.595215
08829		0.176376	-0.011581	10.107434	0.012207	0.012398	-0.010681	-0.408936	0.052002	-0.586182
08830		0.187400	-0.010862	10.131845	0.002098	0.009346	0.000572	-0.413574	0.049805	-0.597900
08831		0.182633	-0.024410	10.125741	0.000000	0.009346	-0.004578	-0.408936	0.054199	-0.595215
08832		0.169189	0.000457	10.162366	0.008965	0.014877	-0.001526	-0.408936	0.054199	-0.595215
08833		0.176914	0.018974	10.162354	0.012970	0.001717	-0.004578	-0.411377	0.052002	-0.592041
08834		0.188488	-0.004832	10.101328	0.000572	0.010490	-0.002480	-0.406494	0.054199	-0.589355
08835		0.182863	-0.024148	10.125737	0.005341	0.004768	0.004578	-0.411377	0.052002	-0.592041
08836		0.188897	-0.005449	10.150144	0.003433	-0.003242	-0.004005	-0.406250	0.052002	-0.595215
08837		0.188468	0.000849	10.095229	0.016785	0.014687	-0.001526	-0.411377	0.056641	-0.595459
08838		0.174607	-0.009986	10.125748	0.011826	0.017166	-0.000954	-0.408936	0.058838	-0.595703
08839		0.207010	-0.006019	10.089122	0.001526	0.010109	-0.006866	-0.408936	0.054199	-0.595215
08840		0.187744	-0.017773	10.137948	0.008774	0.008202	0.003052	-0.411377	0.056641	-0.601562
08841		0.176339	0.006301	10.076916	0.003815	0.013161	-0.006104	-0.401611	0.051758	-0.589111
08842		0.192716	0.006628	10.174584	0.002670	0.024796	-0.007820	-0.408936	0.052002	-0.589111
08843		0.193952	0.006530	10.119655	0.008392	0.026894	-0.002289	-0.404053	0.049561	-0.588867
08844		0.173639	-0.010799	10.107433	0.012779	0.011826	0.000763	-0.408936	0.058838	-0.598633
08845		0.164130	-0.006098	10.101329	0.000000	0.013161	-0.006104	-0.411377	0.056641	-0.592529
08846		0.181215	-0.011834	10.052501	0.007248	0.011063	-0.009918	-0.403809	0.049561	-0.594971
08847		0.170077	-0.011390	10.137954	0.016022	0.016212	-0.006104	-0.413818	0.056641	-0.592529
08848		0.180595	-0.016772	10.150161	-0.001717	0.015640	-0.004768	-0.411377	0.056641	-0.595459
08849		0.170001	0.000700	10.113541	0.013733	0.017738	-0.006866	-0.408936	0.054443	-0.589355
08850		0.174672	-0.010021	10.058604	0.016785	0.010300	-0.007629	-0.411133	0.052002	-0.598145
08851		0.200827	0.000698	10.125744	0.013733	0.011635	-0.003052	-0.408936	0.056641	-0.592529
08852		0.199685	0.007407	10.101328	-0.000763	0.009727	-0.007057	-0.411377	0.052002	-0.592041
08853		0.164248	0.024881	10.052498	0.009155	0.010872	-0.007629	-0.411377	0.054443	-0.592285
08854		0.187103	-0.004138	10.089130	0.021744	0.019073	-0.010681	-0.408936	0.058838	-0.598633
08855		0.194382	-0.017887	10.064716	0.008392	0.018501	-0.001526	-0.411377	0.054443	-0.589355
08856		0.198758	-0.029349	10.113541	0.007820	0.014877	-0.010109	-0.413818	0.054443	-0.592285
08857		0.182020	0.006609	10.070820	0.009918	0.021553	-0.006104	-0.406494	0.056641	-0.595459
08858		0.204971	-0.004428	10.070808	0.014305	0.007057	-0.001526	-0.408936	0.052002	-0.589111
08859		0.182208	-0.017883	10.119646	0.008392	0.017738	-0.003052	-0.408936	0.058838	-0.595703
08860		0.186713	-0.011426	10.107435	0.000381	0.013542	0.001335	-0.404297	0.058838	-0.592773
08861		0.188508	-0.012005	10.083021	0.003815	0.013924	-0.010681	-0.416260	0.059082	-0.595459
08862		0.175071	-0.023747	10.076914	0.005722	0.009918	0.003624	-0.404053	0.056396	-0.595459
08863		0.194919	0.012360	10.070808	0.003052	0.007820	0.000763	-0.411377	0.056641	-0.592529
08864		0.181420	-0.005066	10.089127	0.014687	0.016403	-0.011444	-0.411621	0.058838	-0.589600
08865		0.176187	-0.054267	10.089129	0.012970	0.016212	-0.011444	-0.413818	0.054443	-0.589111
08866		0.205091	-0.010563	10.076921	0.008011	0.016022	-0.000954	-0.413818	0.054443	-0.592285
08867		0.183021	-0.036034	10.101322	0.011444	0.001717	-0.009918	-0.406494	0.052002	-0.589111
08868		0.188633	-0.022425	10.119638	0.016594	0.007629	-0.005531	-0.411133	0.049805	-0.591797
08869		0.188892	-0.005712	10.089118	0.007629	0.006294	-0.006866	-0.411377	0.054443	-0.589355
08870		0.176038	-0.029562	10.089117	0.003624	0.005913	-0.010872	-0.411621	0.056641	-0.589355
08871		0.194533	0.018315	10.083023	0.000000	0.015450	-0.004578	-0.406494	0.052002	-0.592041
08872		0.168487	-0.036476	10.101332	0.002861	0.015640	-0.000763	-0.413818	0.054443	-0.592285
08873		0.163549	-0.018036	10.131857	0.005341	0.024605	-0.005341	-0.409180	0.061035	-0.593018
08874		0.197902	-0.010995	10.046408	0.014496	0.020599	-0.006866	-0.406494	0.056641	-0.595459
08875		0.176609	-0.018188	10.058601	0.002289	0.007820	-0.008392	-0.408936	0.056641	-0.595459
08876		0.194254	-0.023866	10.070806	0.006866	0.004005	-0.011635	-0.408936	0.056641	-0.595459
08877		0.182555	-0.011662	10.131847	0.010681	0.010872	-0.003815	-0.411377	0.058838	-0.595703
08878		0.187179	-0.010409	10.089129	0.014877	0.017548	0.002098	-0.408936	0.056641	-0.592529
08879		0.194761	-0.011976	10.137950	0.004578	0.010872	0.000763	-0.408936	0.058838	-0.595703
08880		0.181435	-0.017336	10.021983	0.011826	0.010490	0.000000	-0.406738	0.063477	-0.593262
08881		0.194455	-0.011932	10.101335	0.005341	0.016975	-0.005341	-0.408936	0.056641	-0.595459
08882		0.187117	-0.023920	10.119636	0.000191	0.007439	-0.008583	-0.411621	0.059082	-0.586670
08883		0.188625	-0.024026	10.052502	0.007629	0.011635	-0.004578	-0.411377	0.056641	-0.595459
08884		0.181077	-0.029465	10.101333	0.005531	0.015640	-0.010872	-0.411377	0.056641	-0.592529
08885		0.176258	-0.012166	10.131849	0.000763	0.014687	-0.002289	-0.408691	0.052002	-0.594971
08886		0.174490	-0.011845	10.144060	0.006866	0.019455	-0.015259	-0.406494	0.054199	-0.592285
08887		0.164399	-0.023708	10.150155	0.013733	0.007820	-0.010681	-0.411377	0.056641	-0.592529
08888		0.169532	0.001583	10.052499	0.004959	0.010109	0.001335	-0.408447	0.047363	-0.600586
08889		0.207048	0.005879	10.089121	-0.004578	0.009346	-0.006104	-0.411377	0.054443	-0.595215
08890		0.199657	0.005879	10.046403	0.004959	0.016022	-0.003052	-0.411377	0.054443	-0.595215
08891		0.164283	-0.030318	10.144052	0.003815	0.010109	-0.007629	-0.411377	0.054443	-0.598145
08892		0.169427	0.000745	10.076911	0.007057	0.008392	-0.009918	-0.408691	0.052002	-0.598145
08893		0.176721	-0.005517	10.162359	0.011444	0.005531	-0.006104	-0.409180	0.061035	-0.593018
08894		0.182150	-0.022362	10.058603	0.017929	0.007629	-0.006866	-0.409180	0.058838	-0.592773
08895		0.188272	-0.005600	10.131854	0.009918	0.018501	-0.000763	-0.409180	0.065674	-0.596191
08896		0.192865	-0.022854	10.119641	0.012016	0.010681	0.001526	-0.404053	0.052002	-0.589111
08897		0.182595	-0.005746	10.101328	0.006866	0.010109	-0.012207	-0.406494	0.056641	-0.592529
08898		0.199787	-0.023226	10.125745	0.010300	0.011444	0.000763	-0.411621	0.058838	-0.589600
08899		0.200904	-0.036202	10.113537	0.008392	0.010109	0.005341	-0.408936	0.052002	-0.592041
08900		0.187581	-0.005084	10.107433	0.005150	0.011444	0.004387	-0.406250	0.049805	-0.592041
08901		0.194378	-0.018120	10.095233	0.003815	0.018501	0.002289	-0.413574	0.052246	-0.597900
08902		0.174845	-0.017574	10.113530	0.006866	0.004959	-0.009155	-0.406494	0.056641	-0.595459
08903		0.158064	-0.011936	10.119639	0.005341	0.012398	-0.000763	-0.413818	0.052246	-0.592041
08904		0.186810	-0.005402	10.144063	0.004387	0.020981	-0.002480	-0.413818	0.056641	-0.595459
08905		0.164248	-0.011933	10.064707	0.005341	0.010872	-0.006104	-0.411377	0.056641	-0.595459
08906		0.224158	-0.005108	10.064709	0.010109	0.010490	-0.009155	-0.406494	0.052002	-0.589111
08907		0.200373	-0.011545	10.040305	0.012970	0.020790	-0.010681	-0.413818	0.054443	-0.592285
08908		0.216682	-0.004529	10.125753	0.006294	0.018692	-0.014687	-0.411377	0.054443	-0.592285
08909		0.194109	-0.017855	10.089135	0.009155	0.023842	0.006104	-0.414062	0.056641	-0.586426
08910		0.167283	-0.029431	10.089131	0.004578	0.022507	0.002861	-0.408936	0.056641	-0.595459
08911		0.194684	-0.018345	10.137951	-0.000763	0.012398	-0.003815	-0.416260	0.054443	-0.589111
08912		0.187083	-0.011696	10.095232	0.012016	0.017548	0.000000	-0.408936	0.054443	-0.592285
08913		0.225208	0.000543	10.028090	0.010681	0.012398	-0.006866	-0.408936	0.054443	-0.592285
08914		0.187413	0.001419	10.052501	0.007248	0.011063	-0.005531	-0.409180	0.058838	-0.592773
08915		0.170198	-0.030396	10.076917	0.002289	0.013924	-0.006866	-0.411621	0.061279	-0.592773
08916		0.169304	-0.017604	10.070804	0.010300	0.003242	0.003815	-0.406494	0.054199	-0.589355
08917		0.188274	-0.030358	10.113543	0.003052	0.018501	-0.005341	-0.413574	0.052246	-0.594971
08918		0.211040	0.006609	10.119643	0.004196	0.013351	-0.006294	-0.411377	0.054443	-0.592285
08919		0.200715	-0.011503	10.076919	0.013733	0.013924	-0.012207	-0.413818	0.056641	-0.601318
08920		0.193245	0.007745	10.119641	0.005913	0.012589	-0.007820	-0.409180	0.056641	-0.589600
08921		0.182441	-0.023873	10.101332	0.010681	0.013161	-0.002289	-0.411377	0.054443	-0.586182
08922		0.192955	-0.029410	10.119649	0.001144	0.020218	-0.000954	-0.411377	0.056641	-0.592529
08923		0.212609	-0.024302	10.125754	0.002289	0.020027	0.003815	-0.409180	0.056641	-0.589600
08924		0.217310	0.012284	10.119636	-0.002289	0.006294	-0.001717	-0.418457	0.050049	-0.591797
08925		0.219255	0.006831	10.083018	0.014496	0.009346	0.003052	-0.408936	0.056641	-0.598389
08926		0.169500	-0.016605	10.150154	0.005341	0.008774	-0.004768	-0.406494	0.052002	-0.586182
08927		0.188312	-0.005795	10.113542	0.006104	0.017738	0.000000	-0.413574	0.058838	-0.607666
08928		0.186912	-0.035900	10.174570	0.002861	0.009537	-0.003052	-0.406494	0.054199	-0.598389
08929		0.164130	-0.018499	10.107432	-0.003815	0.013161	-0.005341	-0.411377	0.054443	-0.598145
08930		0.180918	-0.012393	10.156266	0.005722	0.016785	-0.000763	-0.411377	0.056641	-0.595459
08931		0.194992	-0.036080	10.168465	0.010681	0.006294	0.001526	-0.406738	0.058838	-0.589844
08932		0.206475	0.001417	10.137947	0.007248	0.007439	-0.000954	-0.413818	0.049805	-0.585938
08933		0.194572	-0.005672	10.089126	0.008392	0.014687	-0.008392	-0.406494	0.054199	-0.595215
08934		0.168639	-0.035397	10.119642	0.007248	0.014496	0.000572	-0.406738	0.058838	-0.592773
08935		0.169893	-0.024255	10.052508	0.003052	0.020027	-0.006104	-0.411377	0.056641	-0.598389
08936		0.186477	0.000577	10.064709	0.005531	0.012589	-0.013733	-0.413818	0.056641	-0.592529
08937		0.175870	-0.036775	10.144062	-0.003052	0.022316	-0.001526	-0.411377	0.054443	-0.586182
08938		0.180381	-0.000213	10.156258	0.003242	0.008583	-0.003815	-0.401855	0.058838	-0.583740
08939		0.158298	-0.030126	10.101326	0.007629	0.007820	-0.007629	-0.411621	0.058838	-0.589600
08940		0.175776	-0.017198	10.168464	0.006676	0.007248	-0.011635	-0.411377	0.056641	-0.595459
08941		0.182787	-0.011814	10.131842	0.007629	0.006294	-0.006866	-0.406494	0.052002	-0.589111
08942		0.181572	-0.011222	10.101334	0.004196	0.017166	-0.010872	-0.408936	0.056641	-0.595459
08943		0.194530	0.000509	10.125747	0.009918	0.015450	-0.006866	-0.408691	0.052002	-0.598145
08944		0.174849	-0.017065	10.131846	0.005722	0.010490	-0.001717	-0.411377	0.054443	-0.595215
08945		0.158499	-0.005939	10.101321	0.003242	0.003815	-0.000763	-0.414062	0.056641	-0.586426
08946		0.194063	-0.023853	10.131851	0.005341	0.015259	-0.004768	-0.414062	0.059082	-0.592529
08947		0.206894	0.006452	10.095227	0.006866	0.012398	-0.002289	-0.409180	0.058838	-0.586670
08948		0.162811	-0.041766	10.156262	0.005722	0.012779	-0.000954	-0.408936	0.054443	-0.589355
08949		0.182053	-0.030279	10.137959	0.004578	0.020790	-0.006866	-0.413818	0.052246	-0.592041
08950		0.216858	-0.017073	10.101336	0.016785	0.015259	-0.007629	-0.409180	0.058838	-0.589600
08951		0.206706	0.000193	10.034196	0.003815	0.016212	-0.001526	-0.413574	0.054443	-0.601318
08952		0.180754	-0.011301	10.107434	0.010109	0.012589	-0.015259	-0.411621	0.056641	-0.586426
08953		0.194458	0.018769	10.064713	0.009155	0.016975	0.002289	-0.411377	0.058838	-0.595703
08954		0.199257	-0.004655	10.095224	0.011444	0.008774	-0.012970	-0.411377	0.052002	-0.592041
08955		0.175721	-0.023638	10.107446	0.015259	0.025368	-0.006104	-0.418701	0.056885	-0.595215
08956		0.167499	-0.010459	10.058608	0.004387	0.016403	-0.001717	-0.406494	0.058838	-0.595703
08957		0.176028	-0.030017	10.107440	0.009918	0.019264	0.000763	-0.411377	0.054443	-0.592285
08958		0.186376	-0.016848	10.125749	0.009918	0.016403	-0.006866	-0.403809	0.047363	-0.594727
08959		0.170389	-0.023940	10.107432	0.009155	0.010109	-0.012970	-0.406494	0.056396	-0.598633
08960		0.169366	-0.011004	10.144051	0.006676	0.009537	-0.007057	-0.411377	0.056641	-0.592529
08961		0.194802	-0.011512	10.101329	0.013733	0.010109	-0.001526	-0.408936	0.052002	-0.589111
08962		0.181573	-0.016461	10.150156	0.009918	0.009537	-0.012398	-0.411621	0.058838	-0.592773
08963		0.170504	-0.011893	10.089118	0.006104	0.007820	-0.006866	-0.411377	0.056641	-0.592529
08964		0.205983	0.012812	10.156264	0.000572	0.013351	-0.004005	-0.408936	0.054443	-0.589355
08965		0.188773	-0.005903	10.156258	0.003815	0.008583	-0.007629	-0.411621	0.059082	-0.583740
08966		0.200182	-0.024192	10.107429	-0.003242	0.007439	-0.004005	-0.408691	0.052002	-0.594971
08967		0.170198	-0.036116	10.083022	0.009918	0.013924	-0.006104	-0.408691	0.054199	-0.601318
08968		0.168974	-0.004678	10.168465	0.009155	0.009727	-0.007820	-0.411377	0.058838	-0.595703
08969		0.194876	-0.012054	10.174569	0.003052	0.008583	0.002289	-0.408936	0.054443	-0.592285
08970		0.182046	-0.005761	10.144045	0.000954	0.002098	-0.008392	-0.411377	0.054443	-0.595215
08971		0.188655	0.006185	10.192881	0.001526	0.010872	-0.003815	-0.406494	0.052002	-0.592041
08972		0.181431	0.000389	10.101328	0.005722	0.010490	-0.005341	-0.409180	0.058838	-0.589600
08973		0.194259	0.000394	10.137960	0.007629	0.020790	-0.007629	-0.408936	0.052002	-0.589111
08974		0.192460	-0.005325	10.137954	0.000381	0.014877	0.004387	-0.408936	0.056641	-0.595459
08975		0.219137	-0.005594	10.131849	0.009918	0.011635	-0.006104	-0.408691	0.054199	-0.601318
08976		0.187411	-0.017026	10.113536	0.006294	0.011063	-0.013924	-0.411133	0.054443	-0.601318
08977		0.182630	-0.005557	10.180673	0.010681	0.009346	-0.003052	-0.408936	0.054199	-0.598389
08978		0.138521	-0.023152	10.107435	0.004196	0.017929	-0.001717	-0.413818	0.052246	-0.592041
08979		0.194722	-0.030632	10.150157	-0.002289	0.011635	-0.001526	-0.413818	0.056641	-0.595459
08980		0.181152	-0.012081	10.113539	0.008202	0.014114	0.002861	-0.411377	0.054443	-0.589355
08981		0.188504	0.006528	10.131849	0.008392	0.013924	0.000763	-0.408936	0.054443	-0.592285
08982		0.168325	0.001114	10.156269	0.006866	0.022507	-0.002480	-0.411621	0.058838	-0.589600
08983		0.164514	-0.006137	10.156255	-0.000763	0.005531	-0.006104	-0.408936	0.058838	-0.601807
08984		0.187975	0.006204	10.205090	0.003624	0.012970	-0.011444	-0.406494	0.052002	-0.592041
08985		0.164050	-0.005909	10.150159	0.003815	0.014687	-0.000763	-0.406494	0.052002	-0.592041
08986		0.187344	-0.005430	10.156256	0.005531	0.006676	-0.012398	-0.411377	0.056641	-0.592529
08987		0.164280	-0.017654	10.174570	0.012970	0.010109	0.004578	-0.406494	0.054199	-0.595215
08988		0.175391	-0.003914	10.162364	0.018501	0.011063	-0.011444	-0.411621	0.058838	-0.589600
08989		0.164128	-0.011929	10.137951	0.005341	0.013161	-0.008392	-0.408936	0.056641	-0.592529
08990		0.181222	-0.011544	10.095225	0.003624	0.010872	-0.003242	-0.408936	0.052002	-0.592041
08991		0.188815	-0.012057	10.083015	0.003052	0.007820	0.003815	-0.404053	0.054199	-0.598389
08992		0.193934	-0.011556	10.107432	0.007057	0.010300	-0.008392	-0.411377	0.054443	-0.589355
08993		0.188659	-0.011891	10.131847	0.006104	0.010872	-0.006866	-0.413818	0.052246	-0.592041
08994		0.199269	-0.029347	10.113547	0.011826	0.019836	-0.000191	-0.406494	0.054199	-0.598389
08995		0.176760	-0.011813	10.180669	0.007629	0.004768	-0.006104	-0.408936	0.054443	-0.592285
08996		0.169826	-0.011373	10.076914	0.001335	0.011826	-0.004005	-0.413818	0.054443	-0.589111
08997		0.182596	-0.023876	10.083018	0.010681	0.010109	0.000000	-0.406494	0.058838	-0.595703
08998		0.187367	-0.016671	10.156266	0.011444	0.015640	-0.010109	-0.408936	0.052002	-0.589111
08999		0.182480	-0.006032	10.083019	0.001526	0.012398	0.006104	-0.406738	0.058838	-0.583740
09000		0.193513	0.000849	10.113536	0.014687	0.011063	-0.011444	-0.409180	0.058838	-0.589600
09001		0.170232	0.006310	10.113537	0.003815	0.013161	-0.016022	-0.406738	0.058838	-0.592773
09002		0.187200	0.006353	10.095227	-0.002670	0.013351	-0.002480	-0.411377	0.056641	-0.595459
09003		0.182478	-0.018004	10.125744	0.006104	0.012398	0.002289	-0.408936	0.054443	-0.592285
09004		0.193328	-0.035952	10.168470	0.001907	0.012779	-0.000191	-0.406494	0.054199	-0.598389
09005		0.194454	-0.012273	10.125749	-0.001526	0.016975	-0.011444	-0.413818	0.054443	-0.595215
09006		0.198496	0.000533	10.174584	0.014114	0.023651	-0.006104	-0.408691	0.052002	-0.598145
09007		0.194723	-0.011476	10.137952	0.014496	0.011635	0.003815	-0.408936	0.056641	-0.601562
09008		0.187335	-0.016053	10.083021	0.016212	0.012589	-0.010681	-0.408936	0.054199	-0.598389
09009		0.194878	-0.005711	10.131845	0.007629	0.008583	-0.006104	-0.409424	0.061279	-0.583984
09010		0.169472	-0.023504	10.107432	0.002861	0.011253	-0.002480	-0.411377	0.054443	-0.592285
09011		0.182325	-0.018110	10.113540	0.003815	0.015450	-0.008392	-0.414062	0.061279	-0.592773
09012		0.205502	-0.005428	10.137948	0.005722	0.007820	-0.003815	-0.411377	0.054443	-0.592285
09013		0.200557	-0.005513	10.125750	0.011444	0.016975	-0.010681	-0.413818	0.056641	-0.592529
09014		0.193153	-0.022756	10.125742	0.009918	0.008774	-0.012207	-0.408936	0.054443	-0.589355
09015		0.194878	-0.017646	10.150156	0.012970	0.008583	-0.006866	-0.408936	0.056641	-0.592529
09016		0.205909	-0.010590	10.113541	0.007439	0.014877	-0.000954	-0.408936	0.056641	-0.595459
09017		0.194570	-0.018308	10.119643	0.000000	0.014687	-0.003052	-0.409180	0.054443	-0.583252
09018		0.180905	0.006337	10.101330	0.006485	0.013351	-0.001526	-0.408936	0.052002	-0.589111
09019		0.188275	-0.024141	10.101336	0.005341	0.018501	-0.003815	-0.401367	0.051758	-0.601318
09020		0.192795	-0.011825	10.150158	-0.001907	0.012016	-0.002480	-0.411377	0.056641	-0.598389
09021		0.182400	-0.017804	10.137953	0.009918	0.013924	-0.003815	-0.416504	0.059082	-0.592529
09022		0.168867	-0.005319	10.162363	-0.003433	0.011826	-0.006294	-0.409180	0.056641	-0.589600
09023		0.182170	-0.017991	10.125750	0.006104	0.018501	-0.011444	-0.408936	0.054199	-0.595215
09024		0.193060	-0.004746	10.052497	0.015450	0.006866	-0.009155	-0.411377	0.054443	-0.598145
09025		0.188310	-0.023836	10.137958	0.011444	0.017738	0.002289	-0.411621	0.058838	-0.589600
09026		0.217084	-0.022946	10.150165	0.006104	0.016403	-0.012398	-0.413574	0.054443	-0.598145
09027		0.188586	-0.011893	10.064709	0.006104	0.012398	-0.006866	-0.411621	0.061279	-0.592773
09028		0.199467	-0.011411	10.052505	0.004387	0.014114	-0.003242	-0.406250	0.052002	-0.595215
09029		0.164095	-0.030472	10.076916	0.000763	0.013924	-0.009155	-0.409180	0.056641	-0.589600
09030		0.180712	-0.005732	10.095232	0.007248	0.019073	-0.006104	-0.406494	0.054199	-0.592285
09031		0.207006	0.000666	10.162364	0.012970	0.010109	-0.006866	-0.411621	0.056641	-0.589355
09032		0.187241	-0.016464	10.040301	0.012016	0.018311	-0.004005	-0.413818	0.054443	-0.589111
09033		0.170162	-0.017841	10.040297	0.009155	0.014687	-0.012207	-0.411621	0.061279	-0.592773
09034		0.211210	-0.010858	10.113545	0.009537	0.017548	-0.007820	-0.408936	0.054443	-0.592285
09035		0.201098	-0.011652	10.131843	0.010681	0.006294	-0.013733	-0.406494	0.054199	-0.592285
09036		0.181362	-0.029090	10.083028	0.007439	0.021362	-0.004005	-0.411377	0.052002	-0.592041
09037		0.200790	-0.017834	10.119642	0.009155	0.012398	-0.012970	-0.404053	0.056396	-0.592529
09038		0.199270	0.001337	10.119645	0.009537	0.016022	0.003624	-0.414062	0.056641	-0.589355
09039		0.158653	-0.036532	10.125733	0.001717	0.000763	-0.003052	-0.408936	0.056641	-0.595459
09040		0.200702	-0.018307	10.125745	-0.001717	0.012207	0.004387	-0.406494	0.056641	-0.592529
09041		0.152230	-0.011741	10.150152	0.009155	0.007057	-0.001526	-0.406250	0.052002	-0.595215
09042		0.175667	-0.047589	10.168469	0.007439	0.011253	-0.002480	-0.406494	0.058838	-0.595703
09043		0.188351	-0.036778	10.107437	-0.003052	0.016975	0.003052	-0.408936	0.054199	-0.598389
09044		0.223824	-0.006296	10.107428	0.003624	0.005722	-0.005341	-0.413818	0.052246	-0.589111
09045		0.212848	-0.036578	10.046403	0.000763	0.015450	-0.004578	-0.408936	0.054443	-0.589355
09046		0.175082	-0.012099	10.107427	0.002098	0.005913	-0.001717	-0.408936	0.052002	-0.592041
09047		0.164362	-0.024641	10.113532	-0.004578	0.008583	-0.005341	-0.408936	0.056641	-0.595459
09048		0.211931	-0.018669	10.174578	0.002098	0.016403	-0.010681	-0.418457	0.052246	-0.597900
09049		0.164089	-0.018420	10.150158	-0.002289	0.013924	-0.007629	-0.413818	0.056641	-0.595459
09050		0.204704	-0.012392	10.089140	0.001907	0.027466	-0.004578	-0.408691	0.054199	-0.601318
09051		0.194232	0.006836	10.028097	0.014496	0.021553	-0.006104	-0.409180	0.061035	-0.593018
09052		0.210955	-0.010216	10.150157	0.011063	0.009346	0.000763	-0.408936	0.054199	-0.595215
09053		0.164056	-0.030466	10.089124	0.000763	0.014687	-0.016022	-0.408936	0.054199	-0.595215
09054		0.205531	0.018855	10.101327	0.008774	0.009155	-0.006104	-0.413818	0.054443	-0.592285
09055		0.176878	-0.024058	10.076907	0.006866	0.002480	-0.011444	-0.411377	0.054443	-0.589355
09056		0.176166	-0.035507	10.125744	0.008774	0.010872	-0.002480	-0.411377	0.056641	-0.592529
09057		0.206661	-0.018342	10.125750	-0.000763	0.016975	-0.006866	-0.409180	0.061035	-0.593018
09058		0.186213	-0.005940	10.168481	0.004959	0.025177	-0.007629	-0.409180	0.061035	-0.593018
09059		0.182358	-0.029972	10.186783	0.010681	0.014687	-0.001526	-0.408936	0.056641	-0.595459
09060		0.192884	0.001499	10.064715	0.008965	0.017929	0.001335	-0.406494	0.052002	-0.592041
09061		0.194417	0.000465	10.101336	0.009155	0.017738	-0.002289	-0.408936	0.052002	-0.592041
09062		0.174220	-0.010713	10.168474	0.012589	0.019073	0.005150	-0.413818	0.056641	-0.592529
09063		0.194380	-0.042755	10.095233	-0.000763	0.018501	-0.008392	-0.408936	0.054199	-0.595215
09064		0.193531	-0.024582	10.113523	-0.001526	-0.002480	-0.004768	-0.411377	0.052002	-0.592041
09065		0.194379	-0.017997	10.101337	0.006104	0.018501	-0.005341	-0.408936	0.058838	-0.595703
09066		0.180372	-0.054185	10.083024	0.003433	0.016403	-0.001717	-0.408936	0.054199	-0.598389
09067		0.188620	0.000381	10.131847	0.007629	0.011635	0.005341	-0.404053	0.052002	-0.595215
09068		0.187292	-0.016681	10.156264	0.016975	0.013351	-0.004578	-0.418701	0.054443	-0.595215
09069		0.194302	-0.023993	10.089132	0.008392	0.020027	0.002289	-0.406494	0.056641	-0.595459
09070		0.161826	-0.042178	10.131849	-0.004196	0.017166	0.004387	-0.406494	0.054199	-0.595215
09071		0.164555	-0.036235	10.083013	0.007629	0.004768	-0.001526	-0.411377	0.056641	-0.598389
09072		0.187846	-0.035955	10.083024	-0.001717	0.017548	0.010490	-0.406494	0.056641	-0.595459
09073		0.188580	-0.017962	10.144055	0.006866	0.012398	0.000000	-0.411377	0.054443	-0.592285
09074		0.169254	-0.023224	10.101326	0.010300	0.008011	-0.003052	-0.411377	0.054443	-0.592285
09075		0.194689	-0.024190	10.052503	0.004578	0.012398	0.006104	-0.409180	0.061035	-0.593018
09076		0.174991	-0.035768	10.119642	0.009346	0.013351	0.001526	-0.406494	0.052002	-0.589111
09077		0.182322	-0.036230	10.156266	0.007629	0.015450	-0.003815	-0.406250	0.052002	-0.595215
09078		0.186833	-0.035077	10.162370	0.015259	0.014877	-0.006104	-0.411377	0.056641	-0.592529
09079		0.188043	-0.023940	10.113548	0.009155	0.023079	-0.012207	-0.408691	0.047363	-0.597656
09080		0.185841	-0.011042	10.113544	0.005913	0.019455	-0.008583	-0.406250	0.052002	-0.595215
09081		0.188158	-0.036190	10.125754	0.008392	0.020790	-0.006866	-0.413818	0.056641	-0.601318
09082		0.161655	-0.017220	10.113543	0.006485	0.020599	-0.000191	-0.406494	0.054199	-0.589355
09083		0.170503	-0.036273	10.125740	0.006866	0.007820	0.000000	-0.411377	0.056641	-0.598389
09084		0.187848	-0.029746	10.125742	0.002098	0.009918	0.002098	-0.411377	0.054443	-0.595215
09085		0.188891	-0.024106	10.101325	0.006104	0.006294	0.000000	-0.406494	0.056396	-0.598633
09086		0.163792	-0.023810	10.064703	0.000572	0.006676	-0.003242	-0.411377	0.056641	-0.595459
09087		0.201329	-0.011819	10.156252	0.007629	0.001717	-0.000763	-0.411621	0.063477	-0.595947
09088		0.200514	-0.017585	10.089125	-0.000954	0.014114	-0.010872	-0.408936	0.056641	-0.592529
09089		0.176259	0.000272	10.119642	0.005341	0.014687	-0.002289	-0.418701	0.059082	-0.598633
09090		0.186887	0.006661	10.174575	0.001526	0.015640	-0.003242	-0.411377	0.056641	-0.592529
09091		0.182440	-0.036150	10.131850	0.009155	0.013161	-0.008392	-0.411621	0.056641	-0.589355
09092		0.181180	-0.005188	10.144054	0.001144	0.011635	0.000572	-0.411377	0.054443	-0.595215
09093		0.188541	-0.048403	10.150161	0.008392	0.013161	0.000763	-0.414062	0.056641	-0.589355
09094		0.242280	-0.101670	10.144069	0.026321	0.010300	0.006866	-0.408936	0.054199	-0.595215
09095		0.085187	0.575833	10.034062	0.041962	0.005531	0.005341	-0.411377	0.058838	-0.595703
09096		0.055303	-0.437446	10.186764	-0.042915	-0.019073	0.012970	-0.416016	0.050049	-0.591797
09097		0.371144	0.274397	10.089162	-0.005341	0.023079	-0.004578	-0.408936	0.054199	-0.595215
09098		0.093968	-0.415436	10.156174	0.003052	0.027466	-0.043488	-0.411377	0.052002	-0.592041
09099		0.097566	0.068301	10.113519	0.022888	0.001717	-0.009918	-0.411133	0.049805	-0.591797
09100		0.366713	-0.302762	10.082986	0.002480	-0.013733	0.000000	-0.411621	0.061279	-0.589844
09101		0.181395	-0.048345	10.162387	0.009155	0.033760	-0.019836	-0.413574	0.054443	-0.598145
09102		0.222904	0.172862	10.082979	0.020218	-0.009918	0.008392	-0.411621	0.061279	-0.595947
09103		0.255562	-0.127950	10.119652	0.004578	0.015450	0.006104	-0.411377	0.056641	-0.595459
09104		0.222962	0.323105	10.168509	-0.015068	0.024414	-0.003242	-0.408936	0.052002	-0.592041
09105		0.036112	0.007409	10.064698	0.025940	0.010109	0.000000	-0.411377	0.054443	-0.589355
09106		0.169378	-0.082630	10.034190	0.004578	0.009537	-0.017738	-0.406494	0.052002	-0.592041
09107		0.224812	0.104278	10.076922	0.009918	0.020027	-0.016785	-0.408936	0.056641	-0.592529
09108		0.058280	-0.029070	10.144048	0.009727	0.012970	-0.002289	-0.408936	0.056641	-0.598389
09109		0.231082	-0.195049	9.997583	0.005341	0.016975	0.003052	-0.406494	0.054199	-0.598389
09110		0.254718	-0.017724	10.156248	0.002098	-0.001717	-0.002480	-0.411621	0.058838	-0.592773
09111		0.133920	-0.030251	10.101324	0.005341	0.007057	0.004578	-0.408936	0.054443	-0.592285
09112		0.224241	0.049702	10.064714	0.007820	0.016403	-0.003242	-0.411377	0.054443	-0.595215
09113		0.249892	-0.066808	10.131847	0.006104	0.007057	-0.016785	-0.408936	0.056641	-0.598389
09114		0.175581	0.068082	10.125741	0.007248	0.012970	-0.004768	-0.408936	0.054443	-0.589355
09115		0.212574	0.049416	10.064717	0.011444	0.020790	-0.011444	-0.411621	0.056641	-0.589355
09116		0.174099	-0.041161	10.070816	0.008202	0.016022	-0.007057	-0.411133	0.052002	-0.594971
09117		0.176491	-0.036186	10.137950	0.008392	0.010109	-0.010681	-0.406494	0.056641	-0.592529
09118		0.150876	0.038030	10.058601	0.012779	0.013161	-0.004005	-0.408936	0.056641	-0.595459
09119		0.194688	-0.024445	10.089123	-0.000763	0.012398	-0.007629	-0.408936	0.058838	-0.595703
09120		0.229629	0.018498	10.150168	0.005150	0.019073	-0.018311	-0.413818	0.052246	-0.592041
09121		0.170160	-0.072968	10.089126	0.005341	0.014687	-0.005341	-0.413818	0.056641	-0.595459
09122		0.217175	-0.017544	10.144065	0.005722	0.020218	0.000572	-0.411377	0.052246	-0.586182
09123		0.218909	-0.042219	10.101338	0.009918	0.016212	-0.003815	-0.411377	0.054443	-0.589355
09124		0.229607	-0.017299	10.144057	0.001144	0.012016	0.000572	-0.408936	0.056641	-0.592529
09125		0.201483	0.012827	10.052488	0.012207	-0.001335	-0.006104	-0.411377	0.058838	-0.601562
09126		0.146135	0.050806	10.064604	0.016403	0.008774	-0.010872	-0.414062	0.061279	-0.595703
09127		0.139254	0.000272	10.095230	0.005341	0.022316	-0.003052	-0.409180	0.058838	-0.592773
09128		0.168016	-0.011523	10.046397	0.004005	0.011826	-0.007057	-0.401611	0.056396	-0.592529
09129		0.188970	-0.066864	10.089118	0.005341	0.004768	-0.005341	-0.411377	0.058838	-0.598633
09130		0.175424	-0.017772	10.131855	0.001144	0.021744	-0.004768	-0.409180	0.058838	-0.589600
09131		0.200174	-0.018225	10.101343	0.001526	0.024605	-0.008392	-0.413574	0.054443	-0.598145
09132		0.204327	0.012403	10.095229	0.001717	0.014114	-0.013924	-0.401611	0.051758	-0.595215
09133		0.194956	0.006454	10.113532	0.006866	0.007057	-0.003052	-0.413818	0.056641	-0.598389
09134		0.206689	0.031406	10.076905	0.004387	0.001335	0.000000	-0.413574	0.049805	-0.591797
09135		0.176337	-0.011624	10.107434	0.011444	0.013161	-0.005341	-0.416260	0.054443	-0.592285
09136		0.156799	-0.010735	10.095224	0.006294	0.011063	-0.013161	-0.413574	0.045410	-0.594482
09137		0.176224	-0.035572	10.095232	0.020599	0.015450	-0.010681	-0.408936	0.056641	-0.592529
09138		0.156579	-0.028342	10.125741	0.003242	0.009727	-0.010872	-0.411621	0.056641	-0.589355
09139		0.145395	-0.018393	10.101334	-0.001526	0.021553	0.007629	-0.409180	0.056641	-0.589600
09140		0.173709	-0.006205	10.113544	0.001717	0.021744	-0.002480	-0.413818	0.054443	-0.595215
09141		0.194455	-0.011540	10.107439	0.012970	0.016975	-0.011444	-0.408936	0.054443	-0.589355
09142		0.186569	0.001601	10.089128	0.007248	0.018311	0.004387	-0.411621	0.058838	-0.592773
09143		0.200906	-0.036224	10.131848	0.007629	0.010109	-0.010681	-0.404053	0.056396	-0.598633
09144		0.206135	-0.029571	10.095222	0.003433	0.006676	-0.010109	-0.408936	0.056641	-0.595459
09145		0.182594	-0.006178	10.113535	-0.001526	0.010109	-0.003052	-0.403809	0.052002	-0.598145
09146		0.169118	-0.018052	10.095228	0.008774	0.014496	-0.007629	-0.411621	0.061279	-0.592773
09147		0.170272	0.000235	10.113536	0.004578	0.012398	-0.004578	-0.408936	0.054443	-0.586426
09148		0.163277	-0.011361	10.113529	0.009155	0.003624	-0.002289	-0.408936	0.052002	-0.589111
09149		0.200520	0.000434	10.107440	0.008392	0.017738	-0.009918	-0.408936	0.054199	-0.595215
09150		0.168602	-0.054128	10.174568	-0.001144	0.009537	-0.004005	-0.413574	0.054443	-0.598145
09151		0.188387	-0.017991	10.150162	0.006104	0.016212	-0.009918	-0.408936	0.052002	-0.592041
09152		0.217160	0.019493	10.125750	0.012016	0.016785	-0.001526	-0.416016	0.054443	-0.598145
09153		0.188462	-0.017961	10.168472	0.006866	0.014687	-0.000763	-0.406494	0.056641	-0.595459
09154		0.168878	-0.005329	10.162362	0.002098	0.009727	-0.000191	-0.411377	0.056641	-0.598389
09155		0.170353	-0.011287	10.040294	0.018311	0.010872	-0.000763	-0.411621	0.061279	-0.592773
09156		0.168922	-0.004043	10.144057	0.004768	0.016403	-0.007820	-0.414062	0.061279	-0.589844
09157		0.163474	-0.012046	10.113547	0.003052	0.026131	-0.008392	-0.414062	0.061279	-0.589844
09158		0.149066	0.000756	10.144056	0.009155	0.016785	-0.006866	-0.408936	0.052002	-0.592041
09159		0.157834	-0.024333	10.107436	0.001526	0.016975	-0.004578	-0.413818	0.056641	-0.598389
09160		0.174729	-0.017579	10.083019	0.012398	0.011063	-0.012207	-0.408936	0.056641	-0.601562
09161		0.158332	0.012222	10.144049	0.000000	0.007057	-0.019073	-0.411377	0.058838	-0.595703
09162		0.193856	-0.011956	10.095228	0.004959	0.013733	-0.000763	-0.406738	0.056641	-0.589600
09163		0.183327	0.000391	10.113521	0.007629	-0.004387	-0.006104	-0.406494	0.054199	-0.592285
09164		0.219420	-0.011234	10.156170	0.004196	0.013542	0.002861	-0.408936	0.054199	-0.598389
09165		0.194570	-0.005448	10.113540	0.012970	0.014687	0.000763	-0.408936	0.054443	-0.589355
09166		0.162632	-0.004631	10.125743	0.004578	0.012589	-0.001717	-0.408691	0.049805	-0.597900
09167		0.188082	0.000462	10.101339	0.009155	0.022316	0.000000	-0.413818	0.061279	-0.598877
09168		0.192387	-0.004569	10.119641	0.013161	0.012589	-0.010681	-0.408936	0.056641	-0.595459
09169		0.145432	-0.048673	10.125748	0.003052	0.020790	-0.001526	-0.413818	0.054443	-0.592285
09170		0.186582	0.000460	10.083018	0.003242	0.010490	-0.011635	-0.421143	0.054688	-0.594971
09171		0.194955	-0.011889	10.137947	0.006104	0.007057	-0.008392	-0.411133	0.049805	-0.594971
09172		0.175882	-0.017602	10.119635	0.002670	0.007057	-0.001717	-0.409180	0.058838	-0.592773
09173		0.194723	0.024731	10.107432	0.006104	0.011635	-0.008392	-0.411621	0.058838	-0.592773
09174		0.174784	0.000563	10.058611	-0.000381	0.019455	-0.011635	-0.413818	0.054443	-0.595215
09175		0.188506	-0.005983	10.101332	0.002289	0.013924	-0.005341	-0.408936	0.054443	-0.589355
09176		0.193112	-0.017675	10.083023	0.008965	0.015259	0.006866	-0.413818	0.052246	-0.592041
09177		0.194958	-0.042836	10.058600	-0.002289	0.007057	-0.003815	-0.411621	0.061279	-0.595947
09178		0.169131	-0.042445	10.143967	0.011063	0.019836	-0.005341	-0.416504	0.059082	-0.592529
09179		0.188347	-0.036231	10.162371	0.007629	0.016975	-0.002289	-0.411377	0.056641	-0.595459
09180		0.193034	0.001059	10.150157	0.005531	0.011063	-0.015450	-0.413818	0.054443	-0.592285
09181		0.170349	0.018468	10.101327	0.003052	0.010872	-0.003815	-0.411377	0.056641	-0.601562
09182		0.187468	0.000889	10.095226	0.011826	0.011826	-0.006866	-0.408936	0.054443	-0.592285
09183		0.188698	-0.017576	10.119640	0.014496	0.010109	-0.001526	-0.411377	0.054443	-0.595215
09184		0.212430	-0.010521	10.107425	0.004959	0.002861	-0.004768	-0.408936	0.056641	-0.592529
09185		0.201021	0.000125	10.107430	0.002289	0.007820	-0.009155	-0.411377	0.054443	-0.595215
09186		0.187333	-0.012065	10.076923	-0.001144	0.020218	-0.009346	-0.413818	0.049805	-0.588867
09187		0.163973	-0.005761	10.137953	0.006866	0.016212	0.006866	-0.406494	0.054199	-0.595215
09188		0.180926	0.006941	10.095225	0.003242	0.011063	-0.006866	-0.414062	0.061279	-0.592773
09189		0.188968	-0.005407	10.095220	0.013733	0.004768	-0.003815	-0.411377	0.056641	-0.595459
